timestamp(unix),attitude_roll(radians),attitude_pitch(radians),attitude_yaw(radians),rotation_rate_x(radians/s),rotation_rate_y(radians/s),rotation_rate_z(radians/s),gravity_x(G),gravity_y(G),gravity_z(G),user_acc_x(G),user_acc_y(G),user_acc_z(G),magnetic_field_x(microteslas),magnetic_field_y(microteslas),magnetic_field_z(microteslas),latitude(degree),longitude(degree),altitude(meter),speed(m/s),course(degree),timestamp(unix),User Mark
1508183853.260042,-0.048534,-0.043642,3.056038,0.023961,0.009389,-0.046270,-0.048468,0.043628,-0.997871,-0.004007,0.001706,0.000313,23.553177,26.121964,-35.534988,,,,,,,
1508183853.280056,-0.048782,-0.043125,3.054990,0.022921,-0.008706,-0.053471,-0.048717,0.043112,-0.997882,-0.002583,0.000910,0.002383,23.517870,26.126173,-35.555275,,,,,,,
1508183853.300051,-0.049061,-0.042837,3.054138,0.010124,-0.011920,-0.042752,-0.048997,0.042824,-0.997880,0.000092,0.002296,0.001283,23.498632,26.131168,-35.564320,,,,,,,
1508183853.320041,-0.049269,-0.042960,3.053196,-0.004826,-0.027887,-0.048905,-0.049204,0.042947,-0.997865,0.005335,0.004462,-0.003691,23.451830,26.158691,-35.574978,,,,,,,
1508183853.340059,-0.049377,-0.042993,3.052260,0.009101,-0.030026,-0.045685,-0.049312,0.042980,-0.997858,0.014461,-0.001125,0.000422,23.417530,26.190866,-35.573895,,,,,,,
1508183853.360059,-0.049519,-0.042767,3.051513,0.000570,-0.024724,-0.031894,-0.049454,0.042754,-0.997861,0.019608,-0.004333,-0.000567,23.407352,26.197002,-35.576080,,,,,,,
1508183853.380073,-0.049348,-0.042863,3.050911,-0.008007,-0.021519,-0.034066,-0.049282,0.042850,-0.997865,0.014675,0.002789,0.003343,23.382774,26.215317,-35.578751,,,,,,,
1508183853.400091,-0.048446,-0.043065,3.050399,0.009078,0.004020,-0.021654,-0.048382,0.043051,-0.997901,0.025738,0.006418,-0.003473,23.385992,26.237303,-35.560429,,,,,,,
1508183853.420076,-0.048137,-0.042587,3.050170,0.026337,-0.025839,-0.006305,-0.048075,0.042574,-0.997936,0.028223,0.000090,0.002025,23.402557,26.241518,-35.546413,,,,,,,
1508183853.440101,-0.047987,-0.041829,3.050402,0.018950,-0.042911,0.009943,-0.047927,0.041817,-0.997975,0.004775,-0.006615,0.017735,23.414558,26.209314,-35.562267,,,,,,,
1508183853.460111,-0.048312,-0.041627,3.050413,-0.005849,0.008249,-0.001444,-0.048252,0.041615,-0.997968,0.000202,-0.007710,0.018583,23.407772,26.191523,-35.579838,,,,,,,
1508183853.480104,-0.048085,-0.041652,3.050325,-0.004751,-0.004528,-0.004458,-0.048025,0.041640,-0.997978,0.012533,-0.005324,0.002418,23.411316,26.193701,-35.575901,,,,,,,
1508183853.500099,-0.048237,-0.041562,3.050430,0.002877,-0.038638,0.006694,-0.048177,0.041550,-0.997974,-0.004634,0.006836,0.001819,23.412975,26.189913,-35.577599,,,,,,,
1508183853.520116,-0.048766,-0.041480,3.050269,-0.001607,0.004020,-0.017380,-0.048705,0.041468,-0.997952,-0.005784,0.000356,0.005475,23.399910,26.187771,-35.587769,,,,,,,
1508183853.540132,-0.047895,-0.041616,3.049813,-0.001758,0.053024,-0.019157,-0.047836,0.041604,-0.997988,0.007232,0.004813,0.000445,23.391211,26.195223,-35.588009,,,,,,,
1508183853.560127,-0.046945,-0.041388,3.049824,0.015644,-0.013075,0.007380,-0.046887,0.041376,-0.998043,-0.003833,-0.002649,0.002056,23.433403,26.204071,-35.553715,,,,,,,
1508183853.580148,-0.047979,-0.040845,3.050044,0.021040,-0.026929,0.008643,-0.047921,0.040833,-0.998016,-0.017738,-0.003327,0.007095,23.434973,26.187716,-35.564732,,,,,,,
1508183853.600130,-0.048403,-0.040802,3.049662,-0.015679,0.038147,-0.035992,-0.048344,0.040791,-0.997997,-0.021724,0.000576,0.020809,23.383177,26.172470,-35.610023,,,,,,,
1508183853.620155,-0.047146,-0.041734,3.048754,-0.033948,0.061592,-0.038451,-0.047087,0.041721,-0.998019,0.017424,0.012432,0.000018,23.388340,26.217731,-35.573315,,,,,,,
1508183853.640167,-0.046257,-0.042060,3.048425,0.014506,-0.004529,-0.005539,-0.046199,0.042048,-0.998047,0.017589,0.011953,-0.000412,23.418444,26.249538,-35.530025,,,,,,,
1508183853.660158,-0.046705,-0.041761,3.048695,0.000806,-0.048249,0.019630,-0.046647,0.041749,-0.998039,0.007203,-0.005692,0.006599,23.429655,26.253626,-35.519611,,,,,,,
1508183853.680153,-0.047562,-0.042105,3.048933,-0.013243,-0.016263,0.006381,-0.047501,0.042093,-0.997984,-0.008529,0.003577,0.001478,23.408615,26.241049,-35.542770,,,,,,,
1508183853.700185,-0.047600,-0.042261,3.048872,-0.022994,0.011459,-0.005743,-0.047539,0.042248,-0.997976,-0.005623,-0.008419,0.000386,23.399750,26.251001,-35.541260,,,,,,,
1508183853.720182,-0.047388,-0.042409,3.048563,-0.014501,0.016815,-0.021821,-0.047327,0.042397,-0.997979,-0.011984,-0.004570,-0.008094,23.398918,26.257965,-35.536667,,,,,,,
1508183853.740181,-0.047141,-0.042514,3.047907,-0.009246,0.034948,-0.034884,-0.047081,0.042502,-0.997986,0.000755,0.008341,-0.017715,23.388388,26.279951,-35.527340,,,,,,,
1508183853.760204,-0.046257,-0.042438,3.047322,0.028259,0.026400,-0.026257,-0.046199,0.042426,-0.998031,0.005275,0.009271,-0.018098,23.405518,26.299967,-35.501236,,,,,,,
1508183853.780184,-0.045936,-0.041586,3.047135,0.045565,-0.006679,0.000867,-0.045880,0.041574,-0.998081,0.009763,-0.008905,0.000416,23.405972,26.293772,-35.505527,,,,,,,
1508183853.800209,-0.046243,-0.040492,3.047480,0.042449,-0.022685,0.014963,-0.046189,0.040481,-0.998112,-0.005615,-0.006530,0.010273,23.412298,26.237848,-35.542709,,,,,,,
1508183853.820222,-0.046975,-0.039655,3.047677,0.004922,-0.006681,0.006229,-0.046921,0.039644,-0.998112,-0.008850,-0.004122,0.006977,23.395155,26.197920,-35.583424,,,,,,,
1508183853.840212,-0.046885,-0.039841,3.047633,-0.004835,0.025298,-0.003824,-0.046830,0.039831,-0.998108,-0.008483,0.002665,0.006379,23.387320,26.193644,-35.591724,,,,,,,
1508183853.860223,-0.046840,-0.039599,3.047710,0.010274,-0.002431,0.010428,-0.046786,0.039588,-0.998120,0.000156,-0.001456,-0.005725,23.390932,26.194984,-35.588360,,,,,,,
1508183853.880223,-0.047966,-0.038797,3.048007,0.028627,-0.052511,0.014340,-0.047911,0.038787,-0.998098,-0.011812,-0.008605,0.001516,23.376167,26.168804,-35.617313,,,,,,,
1508183853.900240,-0.048815,-0.038407,3.048107,0.010233,-0.004535,-0.004470,-0.048760,0.038397,-0.998072,-0.011742,-0.001685,0.005946,23.351212,26.149570,-35.647797,,,,,,,
1508183853.920227,-0.048340,-0.038553,3.047758,-0.003915,0.059412,-0.019248,-0.048285,0.038544,-0.998090,0.008688,0.004563,0.005612,23.332680,26.147755,-35.661266,,,,,,,
1508183853.940259,-0.047157,-0.038300,3.047786,0.017779,-0.002443,0.014688,-0.047105,0.038291,-0.998156,0.020860,-0.002478,-0.002516,23.356529,26.154301,-35.640839,,,,,,,
1508183853.960237,-0.047767,-0.037671,3.048454,0.028725,-0.062140,0.035805,-0.047715,0.037662,-0.998151,-0.001082,-0.003772,0.001660,23.388269,26.123806,-35.642395,,,,,,,
1508183853.980253,-0.049625,-0.037190,3.048842,0.006003,-0.012009,0.004172,-0.049570,0.037182,-0.998078,-0.009726,0.001042,0.004457,23.327593,26.079638,-35.714428,,,,,,,
1508183854.000279,-0.049077,-0.037391,3.048526,-0.019933,0.048762,-0.019082,-0.049023,0.037382,-0.998098,-0.003315,-0.000304,0.004659,23.321224,26.083206,-35.715984,,,,,,,
1508183854.020284,-0.048411,-0.037610,3.048394,0.005962,0.002903,0.005022,-0.048358,0.037601,-0.998122,0.018451,0.009030,-0.004594,23.346537,26.104872,-35.683601,,,,,,,
1508183854.040271,-0.048429,-0.037129,3.048879,0.040439,-0.050414,0.029228,-0.048377,0.037121,-0.998139,-0.007043,-0.004025,0.008591,23.359871,26.087376,-35.687668,,,,,,,
1508183854.060297,-0.049446,-0.036417,3.049473,0.028543,-0.014183,0.023380,-0.049394,0.036409,-0.998116,-0.016036,-0.001573,0.010399,23.353575,26.054996,-35.715431,,,,,,,
1508183854.080286,-0.049620,-0.036198,3.049488,-0.010201,0.026367,-0.008101,-0.049567,0.036190,-0.998115,-0.011987,-0.008358,0.009361,23.340153,26.031841,-35.741081,,,,,,,
1508183854.100309,-0.049069,-0.036365,3.049277,-0.028375,0.022109,-0.006960,-0.049016,0.036357,-0.998136,0.003194,0.000157,-0.003649,23.341669,26.039124,-35.734791,,,,,,,
1508183854.120315,-0.048752,-0.037043,3.049321,-0.001480,-0.010948,0.007361,-0.048699,0.037035,-0.998127,0.010735,0.013029,-0.008465,23.351355,26.050398,-35.720242,,,,,,,
1508183854.140319,-0.049166,-0.036877,3.049818,0.032936,-0.044025,0.031274,-0.049113,0.036869,-0.998113,0.008219,0.000424,-0.006099,23.365597,26.061594,-35.702755,,,,,,,
1508183854.160316,-0.050499,-0.035902,3.050559,0.026508,-0.037641,0.034385,-0.050445,0.035895,-0.998082,-0.012192,-0.008383,0.009251,23.340620,26.006680,-35.759090,,,,,,,
1508183854.180334,-0.051399,-0.035543,3.050938,-0.003676,0.011413,0.010237,-0.051344,0.035536,-0.998049,-0.013719,-0.004698,0.009844,23.312464,25.973421,-35.801609,,,,,,,
1508183854.200336,-0.050995,-0.035803,3.050860,-0.025177,0.025303,-0.008075,-0.050940,0.035796,-0.998060,-0.004434,-0.005293,0.007200,23.308271,25.970821,-35.806217,,,,,,,
1508183854.220344,-0.050111,-0.036392,3.050885,0.003912,-0.022672,0.009660,-0.050057,0.036384,-0.998083,0.015663,0.007058,-0.004129,23.339863,25.997322,-35.766384,,,,,,,
1508183854.240330,-0.050734,-0.035926,3.051595,0.042659,-0.062161,0.043259,-0.050679,0.035918,-0.998069,0.013524,0.004686,-0.007058,23.343336,25.987297,-35.771408,,,,,,,
1508183854.260347,-0.051818,-0.035194,3.052322,0.037196,-0.041887,0.026974,-0.051763,0.035187,-0.998039,-0.008815,-0.001678,0.006172,23.333324,25.944302,-35.809132,,,,,,,
1508183854.280342,-0.052266,-0.034877,3.052447,-0.012386,0.042344,-0.007265,-0.052210,0.034869,-0.998027,-0.004339,0.000958,0.012325,23.314590,25.907370,-35.848053,,,,,,,
1508183854.300371,-0.051107,-0.035372,3.051935,-0.033881,0.054104,-0.025547,-0.051053,0.035364,-0.998070,0.003155,-0.003306,0.009315,23.323034,25.922771,-35.831417,,,,,,,
1508183854.320375,-0.050388,-0.035587,3.051811,0.008119,0.000761,0.007187,-0.050335,0.035580,-0.998098,0.015057,0.007374,0.000876,23.358122,25.950680,-35.788338,,,,,,,
1508183854.340355,-0.050815,-0.035086,3.052244,0.022165,-0.029098,0.021471,-0.050762,0.035079,-0.998095,-0.008122,-0.001662,0.010897,23.366114,25.928535,-35.799168,,,,,,,
1508183854.360390,-0.051205,-0.034921,3.052368,-0.003711,0.008243,-0.004642,-0.051151,0.034914,-0.998080,-0.010601,-0.001695,0.009891,23.353628,25.912992,-35.818562,,,,,,,
1508183854.380373,-0.050748,-0.035277,3.052046,-0.019857,0.029571,-0.014536,-0.050694,0.035270,-0.998091,0.009740,0.003091,-0.000307,23.347189,25.915833,-35.820705,,,,,,,
1508183854.400403,-0.049596,-0.035828,3.052115,0.005996,0.002879,0.014622,-0.049544,0.035821,-0.998129,0.012664,0.010139,-0.016046,23.379320,25.944317,-35.779106,,,,,,,
1508183854.420409,-0.049870,-0.035383,3.052678,0.031821,-0.030178,0.028944,-0.049818,0.035375,-0.998132,0.006987,0.004939,-0.007865,23.398670,25.935452,-35.772881,,,,,,,
1508183854.440401,-0.049913,-0.034909,3.053164,0.023104,0.010326,0.017700,-0.049862,0.034902,-0.998146,-0.002705,0.000911,0.004005,23.401119,25.911812,-35.788410,,,,,,,
1508183854.460396,-0.049266,-0.034335,3.053476,0.016646,0.022049,0.016469,-0.049217,0.034328,-0.998198,0.011818,-0.005016,0.005461,23.427382,25.873894,-35.798660,,,,,,,
1508183854.480397,-0.048940,-0.033566,3.054077,0.051036,-0.008886,0.033952,-0.048893,0.033560,-0.998240,0.008015,-0.001501,0.007441,23.463837,25.835587,-35.802448,,,,,,,
1508183854.500431,-0.049725,-0.032377,3.054900,0.041536,-0.046179,0.039832,-0.049678,0.032371,-0.998241,-0.007893,-0.006096,0.015758,23.470558,25.790926,-35.830231,,,,,,,
1508183854.520423,-0.051121,-0.032090,3.055230,-0.007968,0.005041,-0.000327,-0.051073,0.032085,-0.998179,-0.022581,-0.003536,0.004909,23.433249,25.743069,-35.889019,,,,,,,
1508183854.540446,-0.050324,-0.032764,3.054933,-0.008217,0.067927,-0.019366,-0.050276,0.032758,-0.998198,0.000044,0.012378,-0.019365,23.425905,25.760403,-35.881378,,,,,,,
1508183854.560426,-0.049404,-0.032155,3.054497,0.052910,0.021045,-0.020865,-0.049359,0.032149,-0.998264,0.002835,0.004335,-0.016949,23.445415,25.774284,-35.858654,,,,,,,
1508183854.580452,-0.049842,-0.031020,3.054282,0.042240,0.018899,-0.013362,-0.049797,0.031015,-0.998278,-0.017616,0.003973,-0.000639,23.448292,25.731981,-35.887146,,,,,,,
1508183854.600439,-0.049396,-0.030538,3.053599,0.024890,0.060511,-0.045941,-0.049352,0.030533,-0.998315,-0.016688,0.004837,-0.000297,23.439207,25.724501,-35.898441,,,,,,,
1508183854.620451,-0.048321,-0.029920,3.052812,0.029221,0.056225,-0.034153,-0.048281,0.029915,-0.998386,0.003801,-0.001152,-0.007016,23.441376,25.730404,-35.892799,,,,,,,
1508183854.640449,-0.047283,-0.029197,3.052394,0.025109,0.021036,-0.014446,-0.047245,0.029192,-0.998457,0.003788,-0.001315,-0.002306,23.471684,25.718594,-35.881451,,,,,,,
1508183854.660482,-0.046935,-0.028710,3.052558,0.036001,-0.004603,0.021105,-0.046899,0.028706,-0.998487,0.005730,0.002666,-0.006625,23.484991,25.705971,-35.881786,,,,,,,
1508183854.680483,-0.047488,-0.027850,3.053190,0.056494,-0.046176,0.033422,-0.047452,0.027847,-0.998485,-0.002551,-0.000015,-0.007695,23.496910,25.674231,-35.896709,,,,,,,
1508183854.700477,-0.049056,-0.026863,3.053839,0.036094,-0.032309,0.024706,-0.049019,0.026859,-0.998437,-0.019264,-0.001423,0.007027,23.466320,25.605751,-35.965565,,,,,,,
1508183854.720501,-0.049876,-0.026867,3.053962,0.004872,0.000775,-0.003474,-0.049838,0.026864,-0.998396,-0.010541,0.009757,0.014311,23.431147,25.585093,-36.003178,,,,,,,
1508183854.740480,-0.049702,-0.026835,3.053611,0.035802,0.013589,-0.022877,-0.049664,0.026832,-0.998406,-0.002705,0.014886,0.013573,23.421761,25.593479,-36.003326,,,,,,,
1508183854.760505,-0.049425,-0.025966,3.053341,0.028401,-0.002413,-0.009843,-0.049388,0.025963,-0.998442,0.013682,-0.013070,0.029021,23.417007,25.589191,-36.009468,,,,,,,
1508183854.780520,-0.048756,-0.025108,3.053404,0.007125,-0.023745,0.008609,-0.048721,0.025106,-0.998497,0.024170,-0.012243,0.033714,23.430622,25.557482,-36.023121,,,,,,,
1508183854.800508,-0.048877,-0.025175,3.053846,-0.029120,-0.047210,0.029236,-0.048842,0.025173,-0.998489,0.031127,-0.010753,0.028763,23.442471,25.544077,-36.024925,,,,,,,
1508183854.820531,-0.048670,-0.026211,3.054590,-0.040863,-0.044030,0.040929,-0.048634,0.026208,-0.998473,0.020955,0.009376,0.000151,23.464502,25.545927,-36.009266,,,,,,,
1508183854.840538,-0.048814,-0.027069,3.055468,-0.034409,-0.048302,0.047384,-0.048777,0.027066,-0.998443,0.017389,0.001498,-0.006272,23.485682,25.560398,-35.985184,,,,,,,
1508183854.860535,-0.049426,-0.028196,3.056442,-0.033341,-0.048301,0.047383,-0.049386,0.028192,-0.998382,0.004800,0.011298,-0.013184,23.500441,25.567890,-35.970222,,,,,,,
1508183854.880531,-0.050104,-0.029175,3.057167,-0.025949,-0.032294,0.032217,-0.050062,0.029171,-0.998320,0.002150,0.006825,-0.002748,23.494909,25.586266,-35.960770,,,,,,,
1508183854.900557,-0.050128,-0.030048,3.057577,-0.034690,0.008225,0.013509,-0.050085,0.030043,-0.998293,0.003515,0.010637,0.000246,23.496895,25.595877,-35.952629,,,,,,,
1508183854.920564,-0.049531,-0.030926,3.057804,-0.029375,0.023132,0.016488,-0.049487,0.030921,-0.998296,0.010715,0.005944,0.003041,23.520845,25.629129,-35.913254,,,,,,,
1508183854.940569,-0.048368,-0.031305,3.058605,-0.026953,-0.030201,0.054580,-0.048326,0.031300,-0.998341,0.015748,-0.005376,-0.000225,23.581612,25.635626,-35.868744,,,,,,,
1508183854.960575,-0.049297,-0.031889,3.059907,-0.038618,-0.050465,0.068745,-0.049252,0.031884,-0.998277,0.002483,-0.005685,0.004060,23.593342,25.622503,-35.870407,,,,,,,
1508183854.980583,-0.049966,-0.032829,3.061039,-0.050572,-0.008882,0.050023,-0.049918,0.032823,-0.998214,-0.012262,0.001127,0.000564,23.590734,25.615248,-35.877304,,,,,,,
1508183855.000588,-0.050356,-0.033761,3.061810,-0.032428,-0.003542,0.040336,-0.050306,0.033754,-0.998163,-0.002687,-0.006289,-0.005590,23.607399,25.632540,-35.853981,,,,,,,
1508183855.020573,-0.050871,-0.034124,3.062740,-0.021557,-0.044055,0.055843,-0.050820,0.034118,-0.998125,-0.000892,-0.009047,-0.009611,23.610874,25.634165,-35.850533,,,,,,,
1508183855.040601,-0.052089,-0.034352,3.063966,-0.014017,-0.055784,0.060273,-0.052035,0.034345,-0.998055,-0.013944,-0.004560,-0.008400,23.608137,25.619173,-35.863052,,,,,,,
1508183855.060606,-0.054455,-0.034772,3.064740,-0.022767,-0.024836,0.029974,-0.054395,0.034765,-0.997914,-0.023272,-0.000235,-0.008479,23.549999,25.593681,-35.919434,,,,,,,
1508183855.080613,-0.054976,-0.035172,3.065080,-0.022865,-0.004575,0.017950,-0.054914,0.035165,-0.997872,-0.019213,-0.004281,-0.013374,23.532579,25.598389,-35.927494,,,,,,,
1508183855.100619,-0.055718,-0.035313,3.065417,0.010386,-0.032279,0.017261,-0.055655,0.035305,-0.997826,-0.016306,0.004947,-0.024269,23.509130,25.601355,-35.940727,,,,,,,
1508183855.120625,-0.057494,-0.034995,3.065595,0.039224,-0.031196,0.002295,-0.057427,0.034988,-0.997736,-0.024772,0.001572,-0.001684,23.468983,25.581324,-35.981209,,,,,,,
1508183855.140632,-0.058841,-0.034283,3.065485,0.015586,-0.007741,-0.006558,-0.058773,0.034276,-0.997683,-0.020024,-0.003301,0.010088,23.409956,25.562487,-36.033009,,,,,,,
1508183855.160633,-0.059367,-0.033825,3.065250,0.014489,-0.007726,-0.015088,-0.059298,0.033818,-0.997667,-0.017820,-0.006734,0.009310,23.388876,25.556734,-36.050774,,,,,,,
1508183855.180641,-0.060862,-0.032850,3.064843,0.011346,-0.040731,-0.025270,-0.060792,0.032844,-0.997610,-0.024398,-0.010062,0.015356,23.328789,25.535347,-36.104820,,,,,,,
1508183855.200650,-0.062308,-0.032343,3.064077,0.002680,-0.024717,-0.043624,-0.062235,0.032337,-0.997537,-0.012334,-0.007191,0.016306,23.249580,25.527489,-36.161430,,,,,,,
1508183855.220633,-0.062737,-0.032465,3.063125,-0.013414,-0.016189,-0.049063,-0.062663,0.032460,-0.997507,0.003108,0.001384,0.006845,23.206228,25.538546,-36.181461,,,,,,,
1508183855.240639,-0.062619,-0.032633,3.062321,-0.022962,-0.022614,-0.029770,-0.062545,0.032627,-0.997509,0.014709,-0.002903,0.000103,23.170990,25.576473,-36.177254,,,,,,,
1508183855.260668,-0.063156,-0.033070,3.062076,-0.012064,-0.061016,-0.003630,-0.063079,0.033064,-0.997461,0.016738,0.002779,-0.005164,23.157877,25.594488,-36.172909,,,,,,,
1508183855.280672,-0.064356,-0.033233,3.062074,0.000776,-0.061018,-0.003639,-0.064276,0.033227,-0.997379,0.001242,0.005607,-0.001248,23.136950,25.604336,-36.179333,,,,,,,
1508183855.300667,-0.065253,-0.033538,3.061910,-0.010100,-0.011998,-0.012872,-0.065170,0.033532,-0.997311,-0.004242,0.003242,-0.001957,23.077795,25.617744,-36.207611,,,,,,,
1508183855.320688,-0.065413,-0.033401,3.061502,0.006952,0.001863,-0.021617,-0.065330,0.033395,-0.997305,-0.002190,-0.003930,0.007620,23.059498,25.630596,-36.210171,,,,,,,
1508183855.340694,-0.065058,-0.032962,3.060942,0.020775,0.022117,-0.030451,-0.064977,0.032956,-0.997342,0.001577,-0.004560,0.016904,23.053167,25.630470,-36.214294,,,,,,,
1508183855.360699,-0.064328,-0.032256,3.060427,-0.004826,0.004001,-0.022705,-0.064250,0.032250,-0.997413,0.019420,-0.018105,0.028891,23.054352,25.626760,-36.216164,,,,,,,
1508183855.380702,-0.063633,-0.032000,3.060275,-0.007960,-0.004575,0.000881,-0.063557,0.031995,-0.997465,0.018834,-0.010526,0.021467,23.074041,25.618057,-36.209782,,,,,,,
1508183855.400697,-0.063547,-0.031894,3.060285,-0.028234,-0.020551,0.003261,-0.063472,0.031889,-0.997474,0.021404,-0.020383,0.022834,23.085405,25.612619,-36.206387,,,,,,,
1508183855.420718,-0.063033,-0.032214,3.060530,-0.059212,-0.023760,0.016126,-0.062959,0.032209,-0.997496,0.018784,0.000781,-0.004579,23.100103,25.612074,-36.197395,,,,,,,
1508183855.440724,-0.062939,-0.033269,3.060868,-0.030354,-0.005669,0.022240,-0.062863,0.033263,-0.997468,0.016614,0.005616,-0.012267,23.112799,25.628452,-36.177696,,,,,,,
1508183855.460731,-0.062374,-0.033690,3.061262,-0.001551,0.018835,0.017598,-0.062298,0.033683,-0.997489,0.012463,0.007378,-0.016671,23.148632,25.648157,-36.140800,,,,,,,
1508183855.480737,-0.060980,-0.034070,3.061782,0.003829,0.020945,0.029292,-0.060906,0.034064,-0.997562,0.010964,0.012201,-0.007763,23.205976,25.640648,-36.109337,,,,,,,
1508183855.500743,-0.060402,-0.034215,3.062428,0.022025,0.019873,0.030360,-0.060330,0.034209,-0.997592,0.007305,0.018022,-0.005170,23.238016,25.634617,-36.093014,,,,,,,
1508183855.520750,-0.059804,-0.034110,3.063063,0.028395,0.031598,0.025920,-0.059733,0.034103,-0.997632,-0.002721,0.017991,0.004407,23.279230,25.631031,-36.068989,,,,,,,
1508183855.540748,-0.059411,-0.034393,3.063519,0.020828,0.043326,0.019350,-0.059341,0.034387,-0.997645,-0.006912,0.010199,0.011302,23.317591,25.610298,-36.058941,,,,,,,
1508183855.560761,-0.058555,-0.034075,3.063849,0.029377,0.044393,0.017195,-0.058488,0.034069,-0.997707,-0.006683,0.007435,0.011348,23.344751,25.601021,-36.047955,,,,,,,
1508183855.580747,-0.058131,-0.033745,3.064366,0.011266,0.029462,0.028088,-0.058065,0.033739,-0.997743,-0.006480,0.000151,0.026887,23.376820,25.579214,-36.042648,,,,,,,
1508183855.600763,-0.057839,-0.034257,3.064837,-0.025186,0.046524,0.022537,-0.057772,0.034250,-0.997742,-0.006864,0.005148,0.025589,23.405924,25.567343,-36.032181,,,,,,,
1508183855.620781,-0.056600,-0.035251,3.065304,-0.036972,0.059295,0.029824,-0.056535,0.035244,-0.997778,0.004396,0.007282,0.011481,23.450302,25.587631,-35.988899,,,,,,,
1508183855.640779,-0.055976,-0.036029,3.066084,0.002824,0.008121,0.046531,-0.055911,0.036022,-0.997786,-0.004804,0.004307,0.002836,23.497452,25.609646,-35.942459,,,,,,,
1508183855.660782,-0.056941,-0.036177,3.067105,-0.000333,-0.007866,0.048898,-0.056873,0.036169,-0.997726,-0.023709,0.009500,0.008087,23.514452,25.580885,-35.951820,,,,,,,
1508183855.680800,-0.057126,-0.036890,3.067582,-0.030564,0.040153,0.009837,-0.057056,0.036881,-0.997690,-0.027066,0.015960,0.008584,23.512098,25.577356,-35.955872,,,,,,,
1508183855.700777,-0.055837,-0.037990,3.067245,-0.040538,0.109467,-0.021050,-0.055768,0.037981,-0.997721,-0.017627,0.012846,0.007777,23.518276,25.602081,-35.934227,,,,,,,
1508183855.720811,-0.053058,-0.039138,3.067104,-0.037114,0.068933,0.008326,-0.052992,0.039128,-0.997828,0.023207,0.002803,0.010676,23.613115,25.677267,-35.818199,,,,,,,
1508183855.740817,-0.052292,-0.039350,3.067886,-0.006777,-0.009988,0.052100,-0.052228,0.039339,-0.997860,0.004727,-0.007220,0.027569,23.683794,25.681793,-35.768253,,,,,,,
1508183855.760825,-0.052527,-0.039769,3.069017,-0.039990,0.004931,0.052975,-0.052461,0.039759,-0.997831,-0.006835,-0.007196,0.027799,23.696215,25.667156,-35.770535,,,,,,,
1508183855.780829,-0.052529,-0.041057,3.069605,-0.075442,0.025227,0.028182,-0.052461,0.041045,-0.997779,-0.002761,-0.004439,0.005302,23.726276,25.678621,-35.742367,,,,,,,
1508183855.800837,-0.052263,-0.042588,3.070045,-0.075395,0.004995,0.024210,-0.052192,0.042575,-0.997729,-0.003625,-0.002811,-0.003186,23.741325,25.708906,-35.710587,,,,,,,
1508183855.820843,-0.052373,-0.043922,3.070425,-0.062558,0.002867,0.021032,-0.052299,0.043908,-0.997666,-0.008721,-0.001061,-0.013717,23.749538,25.746872,-35.677761,,,,,,,
1508183855.840848,-0.052578,-0.045347,3.070650,-0.045480,0.002888,0.008223,-0.052499,0.045332,-0.997591,-0.004767,0.014864,-0.023267,23.758667,25.792410,-35.638767,,,,,,,
1508183855.860855,-0.052328,-0.046228,3.070505,-0.023185,0.030650,-0.011439,-0.052249,0.046211,-0.997564,-0.000486,0.002648,-0.015329,23.757942,25.835033,-35.608368,,,,,,,
1508183855.880861,-0.051204,-0.046620,3.070247,-0.025372,0.048757,-0.009567,-0.051126,0.046603,-0.997604,0.010766,-0.004809,-0.009064,23.767315,25.847820,-35.592827,,,,,,,
1508183855.900867,-0.049590,-0.046598,3.070497,-0.018769,0.023129,0.022788,-0.049516,0.046581,-0.997687,0.020463,-0.011898,0.003866,23.837561,25.864948,-35.533363,,,,,,,
1508183855.920874,-0.048868,-0.046121,3.071242,-0.019700,-0.000345,0.043389,-0.048796,0.046105,-0.997744,0.011549,-0.020882,0.008135,23.889219,25.836586,-35.519299,,,,,,,
1508183855.940878,-0.048671,-0.046463,3.072202,-0.043216,-0.002479,0.048769,-0.048599,0.046446,-0.997738,0.007782,-0.019301,0.007549,23.909100,25.818306,-35.519215,,,,,,,
1508183855.960885,-0.048616,-0.047033,3.073110,-0.051749,-0.013125,0.046798,-0.048543,0.047015,-0.997714,0.001958,-0.004184,-0.006253,23.950148,25.806065,-35.500454,,,,,,,
1508183855.980892,-0.048766,-0.047874,3.074061,-0.026086,-0.002487,0.050889,-0.048691,0.047856,-0.997667,-0.002960,0.001415,-0.016158,23.972307,25.808264,-35.483891,,,,,,,
1508183856.000899,-0.048962,-0.047940,3.074904,0.004897,-0.002466,0.035937,-0.048886,0.047922,-0.997654,-0.007098,-0.002374,-0.015072,23.982391,25.804159,-35.480061,,,,,,,
1508183856.020881,-0.049224,-0.047506,3.075393,-0.009124,0.008279,0.018678,-0.049148,0.047489,-0.997662,-0.002686,-0.000965,-0.007526,23.989944,25.762102,-35.505508,,,,,,,
1508183856.040910,-0.048877,-0.047948,3.075506,-0.017789,0.023232,0.000341,-0.048802,0.047930,-0.997658,0.002049,0.005461,-0.005135,23.998188,25.763540,-35.498898,,,,,,,
1508183856.060852,-0.048002,-0.048559,3.075607,-0.001744,0.032801,0.007654,-0.047927,0.048540,-0.997671,0.004043,0.011961,-0.016215,24.022858,25.783352,-35.467812,,,,,,,
1508183856.080859,-0.047580,-0.048878,3.075812,0.006899,0.008292,0.011202,-0.047505,0.048859,-0.997675,-0.002315,0.009659,-0.009130,24.060377,25.792866,-35.435444,,,,,,,
1508183856.100866,-0.047388,-0.048891,3.075945,0.018608,0.017895,0.001457,-0.047314,0.048872,-0.997684,-0.003391,0.015078,-0.007306,24.067596,25.790537,-35.432240,,,,,,,
1508183856.120873,-0.046760,-0.048770,3.076039,0.020730,0.031728,0.008719,-0.046687,0.048751,-0.997719,0.007320,0.013429,0.003304,24.075781,25.790888,-35.426426,,,,,,,
1508183856.140878,-0.046114,-0.048738,3.076405,0.034775,-0.001320,0.020918,-0.046043,0.048719,-0.997751,0.002113,-0.000196,0.016901,24.124613,25.785194,-35.397335,,,,,,,
1508183856.160870,-0.046398,-0.048453,3.077049,0.001683,-0.015184,0.032873,-0.046327,0.048434,-0.997751,-0.006209,0.003385,0.024286,24.131519,25.760551,-35.410568,,,,,,,
1508183856.180892,-0.046422,-0.049039,3.077552,-0.027356,0.022128,0.021690,-0.046350,0.049019,-0.997722,-0.006141,0.004768,0.019969,24.135395,25.748579,-35.416634,,,,,,,
1508183856.200897,-0.045854,-0.049980,3.077899,-0.012400,0.028518,0.020520,-0.045781,0.049959,-0.997701,0.002141,0.005934,0.000952,24.165037,25.776892,-35.375801,,,,,,,
1508183856.220903,-0.046137,-0.049893,3.078517,0.017837,-0.047153,0.036523,-0.046064,0.049872,-0.997693,0.004194,0.003335,0.001034,24.181475,25.773605,-35.366966,,,,,,,
1508183856.240887,-0.047004,-0.049948,3.079106,-0.017627,-0.017279,0.016923,-0.046928,0.049928,-0.997650,-0.019265,0.001922,0.011352,24.166721,25.750019,-35.394215,,,,,,,
1508183856.260898,-0.047198,-0.051048,3.078826,-0.049057,0.071222,-0.024857,-0.047119,0.051026,-0.997585,-0.002091,0.009048,0.000118,24.156698,25.776024,-35.382126,,,,,,,
1508183856.280922,-0.045271,-0.051864,3.078406,-0.038211,0.041361,-0.007371,-0.045195,0.051841,-0.997632,0.018568,-0.002524,-0.013339,24.188185,25.827368,-35.323128,,,,,,,
1508183856.300903,-0.045296,-0.052000,3.078800,0.008188,-0.047141,0.031199,-0.045220,0.051977,-0.997624,0.013420,-0.001119,-0.017681,24.213316,25.836380,-35.299313,,,,,,,
1508183856.320935,-0.046581,-0.051489,3.079338,0.017674,-0.025730,0.016942,-0.046502,0.051467,-0.997591,-0.023948,-0.009169,-0.006513,24.201824,25.803343,-35.331345,,,,,,,
1508183856.340941,-0.047013,-0.051281,3.079192,-0.001854,0.026539,-0.017923,-0.046934,0.051258,-0.997582,-0.011202,-0.000492,-0.017616,24.171705,25.790365,-35.361423,,,,,,,
1508183856.360931,-0.046523,-0.051407,3.078627,-0.001892,0.027625,-0.028602,-0.046445,0.051384,-0.997598,-0.002292,0.004921,-0.022787,24.168077,25.800034,-35.356850,,,,,,,
1508183856.380953,-0.046307,-0.051197,3.078142,0.043108,0.013754,-0.023103,-0.046230,0.051175,-0.997619,-0.005116,0.007831,-0.017151,24.169436,25.816277,-35.344063,,,,,,,
1508183856.400959,-0.046347,-0.050241,3.077783,0.068805,0.010547,-0.020943,-0.046272,0.050219,-0.997666,-0.004738,0.005490,0.005616,24.159189,25.798456,-35.364071,,,,,,,
1508183856.420966,-0.046070,-0.049126,3.077366,0.047374,0.016950,-0.024219,-0.045998,0.049106,-0.997734,-0.000511,0.002331,0.014076,24.154282,25.783693,-35.378189,,,,,,,
1508183856.440972,-0.045624,-0.048555,3.077075,0.028193,0.007336,-0.008070,-0.045554,0.048536,-0.997782,0.004813,-0.005323,0.021540,24.156578,25.755011,-35.397511,,,,,,,
1508183856.460971,-0.046170,-0.048161,3.077167,0.012315,-0.035299,0.006422,-0.046100,0.048142,-0.997776,-0.006054,0.001647,0.018986,24.154625,25.738409,-35.410915,,,,,,,
1508183856.480985,-0.047167,-0.048100,3.077072,0.002625,-0.035261,-0.011699,-0.047094,0.048081,-0.997733,-0.010248,0.002700,0.011465,24.137508,25.735449,-35.424736,,,,,,,
1508183856.500989,-0.047280,-0.048575,3.076716,-0.011420,-0.000086,-0.020729,-0.047207,0.048556,-0.997704,0.009380,0.007337,0.007165,24.089737,25.753473,-35.444149,,,,,,,
1508183856.520985,-0.046913,-0.048987,3.076370,-0.011422,0.009485,-0.012337,-0.046839,0.048968,-0.997701,0.013621,0.007123,0.005560,24.089968,25.772934,-35.429840,,,,,,,
1508183856.541003,-0.046598,-0.049158,3.076448,0.003708,-0.014002,0.012518,-0.046525,0.049138,-0.997708,0.017930,0.007396,-0.000629,24.113199,25.793074,-35.399372,,,,,,,
1508183856.561008,-0.046537,-0.049185,3.076858,0.005913,-0.028926,0.019130,-0.046464,0.049165,-0.997709,0.001786,0.003051,0.010878,24.120281,25.781633,-35.402882,,,,,,,
1508183856.581016,-0.046738,-0.049076,3.077212,-0.013401,-0.009748,0.019933,-0.046665,0.049056,-0.997705,0.003498,-0.006332,0.012598,24.122822,25.771889,-35.408241,,,,,,,
1508183856.601022,-0.047109,-0.049340,3.077580,-0.018697,-0.029983,0.018098,-0.047035,0.049320,-0.997675,0.000358,-0.006534,0.008585,24.126606,25.768381,-35.408218,,,,,,,
1508183856.621026,-0.048121,-0.049515,3.077857,-0.030516,-0.021445,0.010519,-0.048043,0.049495,-0.997618,-0.014975,-0.005397,0.003172,24.105053,25.767906,-35.423244,,,,,,,
1508183856.641035,-0.048364,-0.050069,3.077586,-0.036094,0.019101,-0.023121,-0.048285,0.050048,-0.997579,-0.003763,-0.001418,-0.005458,24.080639,25.783812,-35.428272,,,,,,,
1508183856.661016,-0.047735,-0.050509,3.077058,-0.017899,0.021222,-0.019966,-0.047656,0.050488,-0.997587,0.007357,-0.001995,-0.013430,24.079159,25.801319,-35.416534,,,,,,,
1508183856.681036,-0.047117,-0.050374,3.076935,0.000422,-0.001189,-0.000461,-0.047039,0.050353,-0.997623,0.007138,0.002610,-0.013378,24.098104,25.823339,-35.387581,,,,,,,
1508183856.701053,-0.047060,-0.049956,3.077026,0.009011,-0.002271,0.007012,-0.046984,0.049935,-0.997647,0.001894,-0.009957,-0.010349,24.108929,25.812611,-35.388039,,,,,,,
1508183856.721059,-0.047028,-0.049889,3.077182,-0.011325,0.003054,0.010149,-0.046953,0.049868,-0.997652,0.000306,-0.009509,-0.009276,24.111679,25.801065,-35.394585,,,,,,,
1508183856.741064,-0.047246,-0.049755,3.077384,0.029331,0.005173,0.010088,-0.047170,0.049734,-0.997648,-0.007929,-0.001761,-0.003207,24.116434,25.794138,-35.396393,,,,,,,
1508183856.761072,-0.047424,-0.048785,3.077633,0.026151,-0.002288,0.012331,-0.047349,0.048765,-0.997687,-0.007231,-0.014784,0.002524,24.115492,25.770775,-35.414047,,,,,,,
1508183856.781078,-0.047624,-0.048283,3.077804,0.001524,-0.003335,0.005966,-0.047551,0.048264,-0.997702,-0.009563,-0.015366,0.002478,24.112848,25.742559,-35.436363,,,,,,,
1508183856.801082,-0.047839,-0.048214,3.077771,0.005719,0.013728,-0.004947,-0.047765,0.048196,-0.997695,-0.004237,0.006736,-0.007981,24.100006,25.719627,-35.461742,,,,,,,
1508183856.821089,-0.047476,-0.047791,3.077588,0.032436,0.017995,-0.011427,-0.047404,0.047773,-0.997733,-0.000905,0.005953,-0.005395,24.103521,25.718801,-35.459949,,,,,,,
1508183856.841096,-0.047301,-0.047180,3.077540,0.020800,-0.011856,0.002876,-0.047231,0.047162,-0.997770,0.010793,-0.004758,0.001127,24.108316,25.709511,-35.463425,,,,,,,
1508183856.861102,-0.047434,-0.046797,3.077817,0.008027,-0.020400,0.015806,-0.047364,0.046780,-0.997782,-0.002242,-0.000591,0.003321,24.116379,25.677574,-35.481079,,,,,,,
1508183856.881079,-0.047819,-0.046630,3.078065,0.019742,-0.008673,0.009229,-0.047749,0.046613,-0.997771,-0.009945,0.002627,0.001983,24.109457,25.667124,-35.493343,,,,,,,
1508183856.901115,-0.048002,-0.046302,3.078100,0.019658,0.004138,-0.004819,-0.047932,0.046285,-0.997778,-0.006969,0.004069,0.006155,24.104721,25.657232,-35.503708,,,,,,,
1508183856.921120,-0.047786,-0.046445,3.077966,0.021753,0.015859,-0.007123,-0.047716,0.046428,-0.997781,0.003100,0.009159,0.002405,24.098991,25.654568,-35.509521,,,,,,,
1508183856.941127,-0.047710,-0.045798,3.078003,0.028327,-0.021451,0.006209,-0.047642,0.045782,-0.997815,0.007694,-0.002218,0.002148,24.105158,25.648724,-35.509560,,,,,,,
1508183856.961134,-0.048232,-0.045394,3.078208,0.013344,-0.018256,0.008306,-0.048163,0.045378,-0.997808,-0.001565,-0.002165,0.007604,24.097321,25.622829,-35.533569,,,,,,,
1508183856.981139,-0.048686,-0.045275,3.078186,0.000395,0.003078,-0.005855,-0.048617,0.045260,-0.997792,-0.000516,0.000211,0.006901,24.076189,25.611198,-35.556267,,,,,,,
1508183857.001145,-0.048670,-0.045369,3.078015,-0.000667,-0.004370,-0.010012,-0.048601,0.045353,-0.997788,0.000017,0.003383,0.000519,24.075100,25.614653,-35.554516,,,,,,,
1508183857.021151,-0.048780,-0.045338,3.077861,0.017520,-0.003309,-0.010041,-0.048711,0.045323,-0.997784,-0.000026,0.007427,-0.007694,24.068182,25.625851,-35.551132,,,,,,,
1508183857.041131,-0.048531,-0.044832,3.077590,0.019588,0.014811,-0.015636,-0.048464,0.044817,-0.997819,0.004350,-0.004244,0.000733,24.062111,25.617170,-35.561497,,,,,,,
1508183857.061164,-0.048030,-0.044578,3.077304,-0.000732,0.013747,-0.013473,-0.047964,0.044564,-0.997854,0.009955,-0.004494,0.008658,24.067648,25.611250,-35.562012,,,,,,,
1508183857.081146,-0.047233,-0.044999,3.077238,0.004744,-0.013974,0.000787,-0.047168,0.044984,-0.997874,0.021488,0.009918,0.005244,24.091648,25.620728,-35.538925,,,,,,,
1508183857.101175,-0.046955,-0.044818,3.077662,0.034813,-0.022552,0.026480,-0.046890,0.044803,-0.997895,0.014557,0.006863,0.012482,24.113375,25.614437,-35.528725,,,,,,,
1508183857.121182,-0.046888,-0.044198,3.078157,0.019789,-0.017203,0.017884,-0.046825,0.044183,-0.997925,0.013561,-0.004831,0.019761,24.128336,25.584883,-35.539860,,,,,,,
1508183857.141189,-0.046604,-0.044386,3.078482,-0.027340,-0.007591,0.012448,-0.046541,0.044372,-0.997930,0.023150,-0.002334,0.014196,24.137365,25.572247,-35.542824,,,,,,,
1508183857.161195,-0.045099,-0.045303,3.078979,-0.035839,-0.008682,0.030598,-0.045037,0.045287,-0.997958,0.047067,0.006593,-0.003949,24.182842,25.586428,-35.501682,,,,,,,
1508183857.181200,-0.044260,-0.045843,3.080135,-0.001345,-0.048182,0.072732,-0.044199,0.045827,-0.997971,0.078012,0.014247,-0.010421,24.278996,25.590097,-35.433342,,,,,,,
1508183857.201184,-0.045730,-0.045045,3.082267,0.072799,-0.099429,0.121403,-0.045668,0.045030,-0.997941,0.096327,0.011839,-0.004866,24.279963,25.568607,-35.448189,,,,,,,
1508183857.221213,-0.047465,-0.044090,3.084883,0.019262,-0.066433,0.141224,-0.047401,0.044076,-0.997903,0.160820,-0.042672,0.028207,24.270992,25.419083,-35.561687,,,,,,,
1508183857.241219,-0.048144,-0.045394,3.089384,-0.089465,-0.053904,0.281876,-0.048075,0.045378,-0.997812,0.193980,-0.036803,-0.005651,24.335186,25.344873,-35.570782,,,,,,,
1508183857.261226,-0.050638,-0.047118,3.095784,-0.046066,-0.186131,0.345606,-0.050560,0.047101,-0.997610,0.199028,-0.026211,-0.018122,24.384676,25.305710,-35.564777,,,,,,,
1508183857.281231,-0.054206,-0.047720,3.104179,-0.004945,-0.207689,0.467446,-0.054118,0.047702,-0.997394,0.198680,-0.064487,-0.003643,24.473827,25.075195,-35.666664,,,,,,,
1508183857.301223,-0.057916,-0.049459,3.113931,-0.078764,-0.174718,0.502212,-0.057813,0.049439,-0.997102,0.208067,-0.063157,-0.015532,24.559467,24.867931,-35.752804,,,,,,,
1508183857.321245,-0.059439,-0.052340,3.124343,-0.124007,-0.051121,0.532367,-0.059322,0.052317,-0.996867,0.203091,-0.053125,-0.021581,24.628792,24.773073,-35.770969,,,,,,,
1508183857.341250,-0.057943,-0.054461,3.135184,-0.038734,0.089417,0.557988,-0.057824,0.054434,-0.996842,0.220483,-0.011832,-0.039337,24.994850,24.484331,-35.715816,,,,,,,
1508183857.361256,-0.054888,-0.054519,-3.136721,0.066015,0.136247,0.564695,-0.054779,0.054492,-0.997010,0.230331,-0.007175,-0.023543,25.346615,24.200134,-35.661564,,,,,,,
1508183857.381263,-0.050381,-0.053047,-3.124292,0.125996,0.215944,0.655196,-0.050289,0.053022,-0.997326,0.220669,-0.015043,-0.027668,25.537243,24.028097,-35.641891,,,,,,,
1508183857.401268,-0.045193,-0.050948,-3.109795,0.144508,0.209363,0.748046,-0.045119,0.050926,-0.997683,0.205488,-0.014397,-0.025724,26.241165,23.374868,-35.564884,,,,,,,
1508183857.421257,-0.039924,-0.048925,-3.094174,0.124337,0.189069,0.779278,-0.039866,0.048905,-0.998008,0.178431,0.016525,-0.000406,26.759121,22.869247,-35.507626,,,,,,,
1508183857.441282,-0.035347,-0.047559,-3.078694,0.079326,0.190186,0.759036,-0.035300,0.047541,-0.998245,0.165442,0.025030,0.006546,27.003819,22.617197,-35.483810,,,,,,,
1508183857.461279,-0.028650,-0.047233,-3.063403,0.019222,0.273254,0.779203,-0.028614,0.047216,-0.998475,0.106297,-0.000020,-0.002609,27.732224,21.919102,-35.359886,,,,,,,
1508183857.481276,-0.022172,-0.046868,-3.046407,0.054826,0.279445,0.875053,-0.022146,0.046851,-0.998656,0.073110,0.033868,0.013000,28.334160,21.433146,-35.180111,,,,,,,
1508183857.501281,-0.015783,-0.045690,-3.028956,0.082589,0.265652,0.844310,-0.015766,0.045674,-0.998832,0.075183,0.049419,0.016608,28.620504,21.162050,-35.112377,,,,,,,
1508183857.521306,-0.010690,-0.045682,-3.013524,-0.048107,0.181776,0.721933,-0.010679,0.045666,-0.998900,0.086103,0.057697,0.056578,29.403046,20.384947,-34.925053,,,,,,,
1508183857.541310,-0.004062,-0.049051,-2.999830,-0.223245,0.398110,0.697601,-0.004057,0.049032,-0.998789,0.029508,0.072764,-0.003683,29.853176,20.058632,-34.731594,,,,,,,
1508183857.561320,0.004764,-0.052958,-2.984215,-0.148861,0.352032,0.825104,0.004757,0.052933,-0.998587,0.011982,0.085998,-0.039804,30.138916,19.922705,-34.562637,,,,,,,
1508183857.581325,0.008964,-0.052764,-2.967650,0.091649,0.061189,0.812080,0.008951,0.052740,-0.998568,-0.049433,0.101145,-0.035825,30.924570,19.284901,-34.228764,,,,,,,
1508183857.601321,0.008958,-0.049894,-2.950644,0.114797,-0.083841,0.888807,0.008947,0.049873,-0.998715,-0.123235,0.025825,-0.013080,31.234995,18.679037,-34.282841,,,,,,,
1508183857.621338,0.007799,-0.048480,-2.932215,0.020704,-0.071103,0.922815,0.007790,0.048461,-0.998795,-0.190376,0.011857,-0.010467,31.367300,18.361126,-34.333744,,,,,,,
1508183857.641343,0.009510,-0.048337,-2.915996,-0.007338,0.142357,0.719275,0.009499,0.048318,-0.998787,-0.335411,0.110007,-0.005455,31.798170,17.497234,-34.388481,,,,,,,
1508183857.661349,0.016980,-0.048259,-2.904488,0.011384,0.461269,0.513106,0.016960,0.048240,-0.998692,-0.296287,0.101418,0.006016,32.197327,17.102213,-34.215363,,,,,,,
1508183857.681357,0.027455,-0.047450,-2.894398,0.052064,0.449552,0.507913,0.027421,0.047432,-0.998498,-0.276978,0.079353,-0.012061,32.449799,16.933558,-34.060387,,,,,,,
1508183857.701362,0.032725,-0.044346,-2.885208,0.196014,0.139750,0.399270,0.032687,0.044331,-0.998482,-0.341006,0.104045,-0.011009,33.089775,16.366758,-33.720032,,,,,,,
1508183857.721347,0.035845,-0.039317,-2.880170,0.243368,0.183825,0.192799,0.035810,0.039307,-0.998585,-0.386182,0.038680,0.050191,33.281376,16.004217,-33.705486,,,,,,,
1508183857.741375,0.040887,-0.036228,-2.877697,0.085505,0.266086,0.093625,0.040849,0.036220,-0.998509,-0.358507,0.006245,0.047291,33.377838,15.867514,-33.674713,,,,,,,
1508183857.761381,0.046528,-0.036575,-2.877121,-0.064704,0.286572,-0.011057,0.046480,0.036567,-0.998250,-0.309664,0.004433,0.035695,33.586487,15.725678,-33.533501,,,,,,,
1508183857.781384,0.052854,-0.038056,-2.877839,-0.062799,0.329248,-0.044732,0.052792,0.038046,-0.997881,-0.256542,0.073511,0.023607,33.879917,15.794240,-33.204483,,,,,,,
1508183857.801391,0.057530,-0.038645,-2.879089,-0.006811,0.170591,-0.082993,0.057455,0.038635,-0.997600,-0.211874,0.076675,0.026241,33.977734,15.828415,-33.088058,,,,,,,
1508183857.821399,0.059245,-0.039191,-2.880676,-0.044920,0.051256,-0.064173,0.059165,0.039181,-0.997479,-0.132835,0.007847,0.028378,34.096432,15.924541,-32.919403,,,,,,,
1508183857.841384,0.059408,-0.041016,-2.881585,-0.108906,-0.006280,-0.049429,0.059323,0.041005,-0.997396,-0.123685,0.030895,0.008856,34.095074,16.009302,-32.879673,,,,,,,
1508183857.861387,0.059072,-0.043083,-2.882949,-0.084432,-0.014708,-0.099441,0.058982,0.043069,-0.997329,-0.125099,0.044791,0.000412,34.084217,16.062868,-32.864796,,,,,,,
1508183857.881414,0.059165,-0.044785,-2.885685,-0.079413,0.030154,-0.160875,0.059071,0.044770,-0.997249,-0.103413,0.026427,-0.017155,34.026283,16.257687,-32.829018,,,,,,,
1508183857.901418,0.059745,-0.046920,-2.889109,-0.100922,0.039795,-0.185523,0.059644,0.046902,-0.997117,-0.081037,0.039081,-0.040129,34.001732,16.386414,-32.790428,,,,,,,
1508183857.921431,0.059701,-0.048535,-2.892640,-0.046107,-0.029482,-0.173897,0.059595,0.048516,-0.997043,-0.075708,0.047508,-0.045224,33.974792,16.528515,-32.747002,,,,,,,
1508183857.941436,0.058022,-0.049231,-2.895829,-0.021247,-0.088122,-0.150673,0.057919,0.049211,-0.997108,-0.110959,0.031234,-0.043008,33.851791,16.747149,-32.763298,,,,,,,
1508183857.961416,0.056171,-0.049581,-2.898110,0.005716,-0.099955,-0.096140,0.056073,0.049561,-0.997196,-0.165585,0.045898,-0.067639,33.753613,16.845575,-32.814095,,,,,,,
1508183857.981449,0.053749,-0.048137,-2.900548,0.123333,-0.110563,-0.133395,0.053661,0.048119,-0.997399,-0.188411,0.060905,-0.060172,33.701599,16.872595,-32.853649,,,,,,,
1508183858.001455,0.051443,-0.045004,-2.903352,0.172572,-0.114838,-0.132303,0.051368,0.044989,-0.997666,-0.240013,0.041116,-0.051757,33.471497,15.886765,-19.771505,,,,,,,
1508183858.021456,0.047634,-0.041621,-2.907956,0.179807,-0.222076,-0.308826,0.047575,0.041609,-0.998001,-0.256880,0.065767,-0.027024,33.392910,15.912373,-19.883480,,,,,,,
1508183858.041468,0.043901,-0.038910,-2.917251,0.138128,-0.104477,-0.515230,0.043854,0.038901,-0.998280,-0.266128,0.054346,-0.000560,33.254490,16.013969,-20.033333,,,,,,,
1508183858.061473,0.042147,-0.036809,-2.928255,0.129352,-0.079887,-0.559298,0.042106,0.036801,-0.998435,-0.233527,0.072635,-0.002419,32.941525,16.437399,-20.206703,,,,,,,
1508183858.081467,0.038305,-0.034117,-2.940619,0.175517,-0.220347,-0.640468,0.038273,0.034110,-0.998685,-0.228581,0.073922,0.028806,32.762077,16.680002,-20.299431,,,,,,,
1508183858.101487,0.033022,-0.030745,-2.953621,0.195957,-0.255508,-0.638907,0.033000,0.030740,-0.998982,-0.230632,0.075889,0.036916,32.536011,16.938692,-20.448271,,,,,,,
1508183858.121493,0.027854,-0.027781,-2.967285,0.148600,-0.242568,-0.711567,0.027839,0.027778,-0.999226,-0.134514,0.092858,0.041753,32.048435,17.458706,-20.778215,,,,,,,
1508183858.141482,0.021313,-0.025920,-2.982253,0.065262,-0.334068,-0.756029,0.021304,0.025917,-0.999437,-0.101596,0.019677,0.052751,31.771049,17.763407,-20.945280,,,,,,,
1508183858.161506,0.012540,-0.026566,-2.996946,-0.058399,-0.450224,-0.717997,0.012536,0.026563,-0.999569,-0.087914,0.011553,0.032833,31.349157,18.217218,-21.189766,,,,,,,
1508183858.181511,0.004289,-0.027352,-3.010654,0.006726,-0.350199,-0.672579,0.004287,0.027348,-0.999617,-0.106979,0.071773,0.013441,30.797905,18.788651,-21.496944,,,,,,,
1508183858.201502,-0.003381,-0.025969,-3.025099,0.109314,-0.402241,-0.762537,-0.003380,0.025966,-0.999657,-0.019417,0.055348,0.012154,30.380383,19.197628,-21.728470,,,,,,,
1508183858.221524,-0.014233,-0.023976,-3.042744,0.058872,-0.569075,-0.960545,-0.014229,0.023973,-0.999611,0.006203,0.047956,0.025902,30.380383,19.197628,-21.728470,,,,,,,
1508183858.241522,-0.024284,-0.024134,-3.063043,-0.079789,-0.431491,-1.027480,-0.024274,0.024132,-0.999414,0.000593,-0.012032,0.053918,29.221292,20.239809,-22.363121,,,,,,,
1508183858.261508,-0.031964,-0.026292,-3.083698,-0.173222,-0.317487,-1.027997,-0.031948,0.026289,-0.999144,0.128002,0.006396,0.041289,28.769575,20.722214,-22.506544,,,,,,,
1508183858.281530,-0.039387,-0.030447,-3.103873,-0.273471,-0.357011,-0.960172,-0.039359,0.030443,-0.998761,0.171699,-0.004854,0.036618,28.335442,21.221563,-22.591835,,,,,,,
1508183858.301549,-0.048495,-0.035321,-3.120864,-0.272592,-0.466009,-0.787984,-0.048445,0.035313,-0.998201,0.248778,0.027568,-0.011000,27.475761,22.177578,-22.735008,,,,,,,
1508183858.321536,-0.058543,-0.039179,-3.138634,-0.232532,-0.453904,-0.954595,-0.058465,0.039169,-0.997521,0.393914,0.000015,0.006691,27.041397,22.597481,-22.842058,,,,,,,
1508183858.341562,-0.066871,-0.043403,3.125285,-0.311708,-0.352876,-0.860033,-0.066758,0.043389,-0.996825,0.462418,-0.053872,0.001021,26.562420,23.059763,-22.941843,,,,,,,
1508183858.361567,-0.075514,-0.049839,3.112683,-0.374376,-0.426110,-0.452664,-0.075348,0.049818,-0.995912,0.472779,-0.054457,-0.070632,25.742128,23.905136,-23.011522,,,,,,,
1508183858.381564,-0.086525,-0.055175,3.108534,-0.217397,-0.598459,-0.048286,-0.086286,0.055147,-0.994743,0.390073,-0.020098,-0.100640,25.455738,24.153193,-23.071011,,,,,,,
1508183858.401580,-0.099246,-0.057607,3.109048,-0.075687,-0.629615,0.066154,-0.098919,0.057575,-0.993428,0.347744,-0.022373,-0.108256,25.227524,24.250874,-23.218744,,,,,,,
1508183858.421586,-0.108520,-0.059129,3.110399,-0.076595,-0.330269,0.058614,-0.108118,0.059095,-0.992380,0.205622,-0.005567,-0.124090,24.869560,24.261091,-23.591257,,,,,,,
1508183858.441583,-0.111473,-0.059690,3.110455,0.018658,-0.064885,-0.024212,-0.111044,0.059654,-0.992023,0.163870,0.043572,-0.116131,24.795204,24.269978,-23.660282,,,,,,,
1508183858.461599,-0.110710,-0.057198,3.109514,0.171049,0.097085,-0.070394,-0.110304,0.057167,-0.992253,0.140196,0.039482,-0.099361,24.762844,24.271185,-23.692909,,,,,,,
1508183858.481605,-0.107611,-0.053212,3.108456,0.196420,0.184460,-0.086608,-0.107252,0.053187,-0.992808,0.105482,-0.011546,-0.021627,24.788166,24.204809,-23.734297,,,,,,,
1508183858.501590,-0.102969,-0.049399,3.106408,0.157442,0.288953,-0.131813,-0.102661,0.049379,-0.993490,0.096604,-0.022692,0.046468,24.821238,24.174309,-23.730820,,,,,,,
1508183858.521617,-0.096490,-0.046682,3.105105,0.113835,0.309004,-0.031839,-0.096236,0.046665,-0.994264,0.105452,-0.014454,0.055665,24.905771,24.161711,-23.654959,,,,,,,
1508183858.541623,-0.092768,-0.044561,3.106268,0.111604,0.113818,0.092552,-0.092543,0.044546,-0.994712,0.110152,-0.013037,0.068335,25.055260,24.094362,-23.565622,,,,,,,
1508183858.561618,-0.091259,-0.043379,3.109207,0.028484,0.066842,0.156207,-0.091047,0.043365,-0.994902,0.104123,-0.033203,0.067076,25.128338,24.014290,-23.569546,,,,,,,
1508183858.581636,-0.087843,-0.044982,3.112237,-0.113238,0.231980,0.160317,-0.087641,0.044967,-0.995137,0.121577,-0.030196,0.055439,25.245249,23.932981,-23.527273,,,,,,,
1508183858.601633,-0.081721,-0.047931,3.115200,-0.132764,0.322528,0.161151,-0.081537,0.047912,-0.995518,0.219903,0.011551,-0.012569,25.492058,23.902666,-23.290777,,,,,,,
1508183858.621646,-0.074671,-0.050326,3.119132,-0.086551,0.346850,0.245001,-0.074507,0.050304,-0.995951,0.267028,-0.013897,-0.040594,25.670004,23.878206,-23.119801,,,,,,,
1508183858.641632,-0.053408,-0.049726,3.126541,-0.037669,0.260333,0.386975,-0.053317,0.049705,-0.997340,0.261462,-0.036720,-0.053029,25.877262,23.812246,-22.956202,,,,,,,
1508183858.661659,-0.047190,-0.050358,3.135680,0.021333,0.327215,0.493658,-0.047113,0.050337,-0.997620,0.228708,-0.040816,-0.057494,26.704643,23.452694,-22.371323,,,,,,,
1508183858.681661,-0.038209,-0.049247,-3.137488,0.100022,0.492311,0.491204,-0.038154,0.049227,-0.998059,0.235358,-0.021472,-0.040256,27.107391,23.159189,-22.191984,,,,,,,
1508183858.701673,-0.026336,-0.047387,-3.127830,0.106047,0.602072,0.469348,-0.026304,0.047369,-0.998531,0.270933,-0.007513,-0.013874,27.569929,22.847023,-21.944372,,,,,,,
1508183858.721678,-0.012480,-0.046294,-3.118402,0.030823,0.735200,0.491999,-0.012467,0.046277,-0.998851,0.291702,-0.009397,0.017070,28.058371,22.552874,-21.627268,,,,,,,
1508183858.741671,0.003318,-0.046229,-3.106038,-0.010183,0.732636,0.713858,0.003314,0.046212,-0.998926,0.315228,-0.012017,0.001795,28.483578,22.319098,-21.311659,,,,,,,
1508183858.761686,0.015082,-0.046193,-3.087703,0.007818,0.414570,1.025552,0.015065,0.046176,-0.998820,0.286220,-0.016681,-0.010885,28.951990,22.012850,-20.996660,,,,,,,
1508183858.781697,0.021876,-0.044999,-3.065527,0.049263,0.263090,1.129016,0.021852,0.044984,-0.998749,0.088027,0.024459,0.033005,29.867277,21.094528,-20.654528,,,,,,,
1508183858.801692,0.028640,-0.044198,-3.043549,-0.027097,0.315448,1.057938,0.028608,0.044184,-0.998614,0.072847,0.021108,0.047396,30.302633,20.574774,-20.544394,,,,,,,
1508183858.821710,0.038008,-0.046102,-3.022751,-0.177407,0.496554,1.068220,0.037959,0.046086,-0.998216,0.061544,0.008449,0.029817,30.723539,20.099380,-20.389263,,,,,,,
1508183858.841716,0.048448,-0.048967,-2.998383,-0.181730,0.380024,1.278908,0.048371,0.048947,-0.997629,-0.036500,0.041476,-0.070287,31.661394,19.164175,-19.847755,,,,,,,
1508183858.861697,0.054636,-0.049906,-2.972996,-0.071190,0.206480,1.220563,0.054541,0.049885,-0.997265,-0.130148,0.076015,-0.078037,32.118179,18.594501,-19.654770,,,,,,,
1508183858.881729,0.058841,-0.047980,-2.950073,0.069811,0.161938,1.103810,0.058740,0.047962,-0.997120,-0.155221,0.093258,-0.060787,32.630810,17.829977,-19.518328,,,,,,,
1508183858.901734,0.064727,-0.045521,-2.929189,0.049015,0.256863,1.047001,0.064615,0.045505,-0.996872,-0.229303,0.049756,-0.046798,33.198654,16.912683,-19.376616,,,,,,,
1508183858.921725,0.068572,-0.043816,-2.908415,0.011983,0.068410,1.004977,0.068452,0.043802,-0.996692,-0.306077,0.110663,-0.053433,33.524940,16.375708,-19.275827,,,,,,,
1508183858.941748,0.070530,-0.042125,-2.890962,0.022986,0.098652,0.795535,0.070409,0.042112,-0.996629,-0.363164,0.139956,-0.013549,33.863903,15.711049,-19.236475,,,,,,,
1508183858.961752,0.073846,-0.040379,-2.877263,0.024403,0.156514,0.625153,0.073719,0.040368,-0.996462,-0.355625,0.095557,-0.005476,34.207779,15.052373,-19.154554,,,,,,,
1508183858.981753,0.077392,-0.039698,-2.866307,-0.002593,0.134342,0.529528,0.077254,0.039687,-0.996221,-0.406219,0.070008,-0.044504,34.385532,14.750618,-19.070850,,,,,,,
1508183859.001763,0.080261,-0.038212,-2.856981,0.079375,0.134584,0.398308,0.080116,0.038203,-0.996053,-0.432564,0.110128,-0.051081,34.540562,14.477607,-18.999777,,,,,,,
1508183859.021765,0.083982,-0.035299,-2.852697,0.133945,0.205408,0.131731,0.083831,0.035292,-0.995855,-0.359512,0.096818,0.010976,34.776161,14.060046,-18.883240,,,,,,,
1508183859.041751,0.088551,-0.033662,-2.851026,0.022515,0.209778,0.091231,0.088385,0.033655,-0.995518,-0.282462,0.048315,0.014515,34.861065,13.971902,-18.791889,,,,,,,
1508183859.061786,0.091170,-0.033731,-2.848663,-0.013320,0.071221,0.133787,0.090992,0.033724,-0.995280,-0.267505,0.061918,0.014766,34.938236,13.916460,-18.689432,,,,,,,
1508183859.081776,0.090474,-0.032231,-2.847114,0.118365,-0.073461,0.022759,0.090304,0.032225,-0.995393,-0.292162,0.103364,0.038362,35.009346,13.787914,-18.651596,,,,,,,
1508183859.101779,0.089859,-0.030237,-2.848720,0.069532,0.004590,-0.115890,0.089697,0.030233,-0.995510,-0.202612,0.007105,0.060299,34.988976,13.762805,-18.708281,,,,,,,
1508183859.121777,0.090031,-0.031371,-2.852116,-0.108380,0.010124,-0.197942,0.089865,0.031365,-0.995460,-0.099234,-0.011239,0.043006,34.965466,13.805155,-18.721031,,,,,,,
1508183859.141810,0.089740,-0.034802,-2.855955,-0.157521,-0.022876,-0.202758,0.089565,0.034795,-0.995373,-0.075420,0.033870,0.013424,34.886345,14.071304,-18.670412,,,,,,,
1508183859.161807,0.088056,-0.037262,-2.859319,-0.076881,-0.115640,-0.168417,0.087882,0.037253,-0.995434,-0.053000,0.057504,-0.007175,34.833561,14.210445,-18.663586,,,,,,,
1508183859.181822,0.085070,-0.038526,-2.863036,-0.038411,-0.141137,-0.207530,0.084904,0.038517,-0.995644,-0.042988,0.057385,-0.009498,34.764969,14.321650,-18.706432,,,,,,,
1508183859.201827,0.082871,-0.039987,-2.867057,-0.070673,-0.078295,-0.199886,0.082710,0.039976,-0.995772,-0.020821,0.035006,-0.020906,34.605747,14.558405,-18.818562,,,,,,,
1508183859.221818,0.081422,-0.041944,-2.870980,-0.083593,-0.062294,-0.209706,0.081260,0.041932,-0.995811,-0.028205,0.055069,-0.027307,34.542107,14.683385,-18.838366,,,,,,,
1508183859.241842,0.080456,-0.043428,-2.875000,-0.031227,-0.026114,-0.197474,0.080293,0.043414,-0.995825,-0.041338,0.059064,-0.027933,34.478752,14.815052,-18.851336,,,,,,,
1508183859.261847,0.078909,-0.043111,-2.879083,0.063110,-0.097484,-0.209305,0.078754,0.043098,-0.995962,-0.056247,0.057168,-0.035791,34.362061,15.031507,-18.893003,,,,,,,
1508183859.281843,0.076023,-0.041723,-2.883154,0.099726,-0.158245,-0.192457,0.075884,0.041711,-0.996244,-0.124727,0.066245,-0.020358,34.283794,15.116632,-18.967125,,,,,,,
1508183859.301859,0.073149,-0.039518,-2.888063,0.139970,-0.102706,-0.271133,0.073027,0.039507,-0.996547,-0.162001,0.068082,0.001659,34.195366,15.188820,-19.068811,,,,,,,
1508183859.321865,0.072159,-0.037692,-2.894826,0.093336,-0.002327,-0.364308,0.072045,0.037683,-0.996689,-0.219689,0.049582,0.024308,34.015732,15.404708,-19.216343,,,,,,,
1508183859.341861,0.072097,-0.037181,-2.903153,0.034208,0.007426,-0.440112,0.071985,0.037173,-0.996713,-0.237939,0.061079,0.013726,33.928417,15.578448,-19.230635,,,,,,,
1508183859.361878,0.070492,-0.037570,-2.913374,0.014845,-0.093520,-0.563391,0.070384,0.037561,-0.996813,-0.246028,0.077704,-0.004011,33.781448,15.874094,-19.247591,,,,,,,
1508183859.381883,0.068849,-0.038407,-2.925816,-0.002751,-0.027299,-0.649642,0.068744,0.038397,-0.996895,-0.275836,0.085260,0.000405,33.508286,16.363754,-19.314903,,,,,,,
1508183859.401889,0.067842,-0.039154,-2.939650,0.017415,-0.039961,-0.712386,0.067738,0.039144,-0.996935,-0.236058,0.077051,0.004366,33.336960,16.698200,-19.325115,,,,,,,
1508183859.421894,0.065165,-0.039671,-2.954042,0.027368,-0.148619,-0.711884,0.065068,0.039661,-0.997092,-0.223332,0.069516,0.010703,33.073917,17.165779,-19.367367,,,,,,,
1508183859.441900,0.060496,-0.039727,-2.967154,0.047186,-0.232967,-0.616841,0.060411,0.039716,-0.997383,-0.232561,0.053972,0.020531,32.690693,17.715031,-19.522789,,,,,,,
1508183859.461886,0.054347,-0.039498,-2.978840,0.045467,-0.321479,-0.567572,0.054278,0.039487,-0.997745,-0.223620,0.027621,0.011996,32.455753,17.995403,-19.657885,,,,,,,
1508183859.481916,0.046600,-0.039645,-2.991419,0.015213,-0.365951,-0.698060,0.046546,0.039635,-0.998129,-0.200309,0.057884,0.029349,32.205067,18.260237,-19.825245,,,,,,,
1508183859.501920,0.038842,-0.040036,-3.007543,0.017961,-0.359287,-0.834645,0.038801,0.040025,-0.998445,-0.138441,0.020354,0.041215,31.586168,18.939850,-20.180166,,,,,,,
1508183859.521912,0.029461,-0.040726,-3.023312,-0.026310,-0.511741,-0.766290,0.029432,0.040715,-0.998737,-0.102750,-0.009770,0.037388,31.236378,19.320995,-20.362484,,,,,,,
1508183859.541934,0.017590,-0.043036,-3.039353,-0.146271,-0.554172,-0.840226,0.017573,0.043023,-0.998920,-0.082759,0.014579,0.036365,30.719730,19.818396,-20.668150,,,,,,,
1508183859.561939,0.007423,-0.047082,-3.057926,-0.210317,-0.398353,-0.979991,0.007415,0.047065,-0.998864,-0.001403,0.043893,0.044763,30.005505,20.570831,-20.979836,,,,,,,
1508183859.581942,-0.000779,-0.051696,-3.078076,-0.230715,-0.401497,-1.003388,-0.000778,0.051672,-0.998664,0.146926,0.005197,-0.020639,29.579891,21.085875,-21.072704,,,,,,,
1508183859.601953,-0.012412,-0.057321,-3.097354,-0.333724,-0.592285,-0.934433,-0.012391,0.057290,-0.998281,0.170961,-0.008233,-0.039058,28.971886,21.770306,-21.220898,,,,,,,
1508183859.621958,-0.025853,-0.063081,-3.115741,-0.258851,-0.564639,-0.918896,-0.025799,0.063039,-0.997678,0.194484,0.077449,-0.024814,28.134447,22.600170,-21.478550,,,,,,,
1508183859.641940,-0.036245,-0.066164,-3.135612,-0.162218,-0.429168,-1.024364,-0.036157,0.066116,-0.997157,0.363916,-0.024795,-0.037298,27.646549,23.067696,-21.614645,,,,,,,
1508183859.661971,-0.046953,-0.069868,3.128636,-0.280088,-0.517950,-0.825723,-0.046821,0.069811,-0.996461,0.476676,-0.116946,-0.073974,26.985233,23.695217,-21.771011,,,,,,,
1508183859.681977,-0.060062,-0.075299,3.115383,-0.279862,-0.662293,-0.557054,-0.059856,0.075228,-0.995368,0.422542,-0.036577,-0.103539,26.230793,24.356504,-21.962450,,,,,,,
1508183859.701968,-0.072626,-0.078302,3.106582,-0.128788,-0.505082,-0.353651,-0.072340,0.078222,-0.994308,0.332166,0.017009,-0.082093,25.828804,24.631107,-22.131975,,,,,,,
1508183859.721990,-0.080870,-0.079425,3.101731,-0.059107,-0.341430,-0.165209,-0.080527,0.079341,-0.993590,0.246299,-0.021297,-0.079439,25.450233,24.852253,-22.322500,,,,,,,
1508183859.741996,-0.085899,-0.079667,3.100121,0.010364,-0.190408,-0.053357,-0.085521,0.079582,-0.993153,0.138194,0.009468,-0.063320,25.323240,24.914455,-22.397465,,,,,,,
1508183859.761996,-0.087581,-0.078246,3.097535,0.076665,0.014413,-0.209925,-0.087201,0.078166,-0.993119,0.105603,0.019933,-0.004058,25.123035,24.974096,-22.555944,,,,,,,
1508183859.782008,-0.084581,-0.076891,3.092043,0.006249,0.234000,-0.275968,-0.084231,0.076815,-0.993481,0.120913,-0.042208,0.004147,25.032419,25.056442,-22.565361,,,,,,,
1508183859.801987,-0.081130,-0.076852,3.088134,-0.002664,0.128295,-0.150737,-0.080802,0.076777,-0.993769,0.123465,-0.005610,-0.020391,25.001890,25.207600,-22.430456,,,,,,,
1508183859.821994,-0.079671,-0.075687,3.086001,0.078989,0.083414,-0.090435,-0.079359,0.075615,-0.993974,0.055708,-0.004158,0.003190,24.979794,25.257423,-22.399006,,,,,,,
1508183859.842010,-0.077587,-0.073814,3.084869,0.077971,0.112091,-0.048198,-0.077298,0.073747,-0.994277,0.050809,-0.010606,0.012069,24.978754,25.259445,-22.397882,,,,,,,
1508183859.862033,-0.075162,-0.072823,3.084450,0.034162,0.131202,-0.011122,-0.074893,0.072759,-0.994534,0.069857,-0.029973,0.014919,25.023361,25.245182,-22.364147,,,,,,,
1508183859.882011,-0.072075,-0.072288,3.084592,0.024493,0.170570,0.012840,-0.071824,0.072225,-0.994799,0.081224,-0.007619,0.016131,25.087242,25.232399,-22.306931,,,,,,,
1508183859.902038,-0.068227,-0.072182,3.085689,0.002219,0.185341,0.087283,-0.067997,0.072120,-0.995075,0.101902,-0.007834,0.021229,25.131395,25.223095,-22.267721,,,,,,,
1508183859.922052,-0.065540,-0.072255,3.088776,0.011414,0.078618,0.185857,-0.065323,0.072192,-0.995249,0.158371,0.012739,0.009913,25.318987,25.140802,-22.147955,,,,,,,
1508183859.942045,-0.063890,-0.072730,3.093332,-0.032219,0.078482,0.259467,-0.063678,0.072666,-0.995321,0.177447,-0.001377,0.013632,25.453529,25.033405,-22.115368,,,,,,,
1508183859.962065,-0.060831,-0.074672,3.100057,-0.095182,0.166646,0.392590,-0.060624,0.074603,-0.995369,0.193177,0.003812,0.006508,25.541611,24.972437,-22.082718,,,,,,,
1508183859.982070,-0.056626,-0.076231,3.109578,0.000474,0.161047,0.517356,-0.056432,0.076157,-0.995498,0.212773,0.028487,-0.031816,25.952984,24.704529,-21.903694,,,,,,,
1508183860.002078,-0.052552,-0.075630,3.120386,0.071129,0.172707,0.537394,-0.052378,0.075558,-0.995765,0.216990,-0.021481,-0.001153,26.200182,24.487530,-21.853016,,,,,,,
1508183860.022084,-0.046886,-0.075730,3.130746,-0.013913,0.302763,0.499317,-0.046735,0.075658,-0.996038,0.231259,-0.040150,0.009664,26.454044,24.253778,-21.807817,,,,,,,
1508183860.042088,-0.037902,-0.077380,3.140664,-0.086044,0.468924,0.516155,-0.037779,0.077302,-0.996292,0.288222,-0.039201,0.009582,27.027861,23.866350,-21.529865,,,,,,,
1508183860.062075,-0.027081,-0.079376,-3.129965,-0.059751,0.478110,0.713268,-0.026993,0.079293,-0.996486,0.304092,-0.006417,-0.009496,27.382511,23.668427,-21.298979,,,,,,,
1508183860.082102,-0.018450,-0.079719,-3.112994,0.031340,0.287016,0.911104,-0.018391,0.079634,-0.996655,0.290729,0.000429,-0.020618,27.922102,23.277027,-21.028057,,,,,,,
1508183860.102108,-0.012036,-0.079262,-3.093096,0.036090,0.253764,1.025677,-0.011998,0.079179,-0.996788,0.146352,-0.031251,-0.021065,28.328726,22.883842,-20.915449,,,,,,,
1508183860.122110,-0.003000,-0.078942,-3.072877,0.018255,0.445601,0.980256,-0.002991,0.078860,-0.996881,0.086914,0.008496,-0.023428,29.040634,22.139687,-20.739307,,,,,,,
1508183860.142121,0.008716,-0.078827,-3.053500,-0.008698,0.510593,0.977201,0.008689,0.078745,-0.996857,0.086190,-0.028132,-0.029861,29.657112,21.560764,-20.475159,,,,,,,
1508183860.162109,0.017575,-0.079724,-3.033662,-0.090343,0.257087,0.977740,0.017518,0.079640,-0.996670,0.062850,-0.035923,-0.054401,29.970798,21.272039,-20.319809,,,,,,,
1508183860.182105,0.024464,-0.081837,-3.014428,-0.116346,0.341292,0.955212,0.024380,0.081746,-0.996355,-0.073421,0.012447,-0.059630,30.775427,20.428902,-19.979393,,,,,,,
1508183860.202111,0.034460,-0.081262,-2.994775,0.074021,0.413612,0.989209,0.034339,0.081173,-0.996108,-0.114997,0.056553,-0.086762,31.166643,20.017159,-19.788803,,,,,,,
1508183860.222144,0.043193,-0.077781,-2.975696,0.144645,0.343417,0.925129,0.043050,0.077703,-0.996047,-0.074300,0.058848,-0.071275,31.972017,19.045105,-19.460657,,,,,,,
1508183860.242151,0.050303,-0.074761,-2.957885,0.098816,0.246556,0.893513,0.050142,0.074692,-0.995945,-0.130373,0.066910,-0.064144,32.430820,18.417374,-19.305058,,,,,,,
1508183860.262158,0.055731,-0.071828,-2.940535,0.109625,0.167802,0.855194,0.055558,0.071766,-0.995873,-0.156404,0.093792,-0.052970,32.640106,18.108564,-19.244381,,,,,,,
1508183860.282163,0.058224,-0.068710,-2.924108,0.110982,0.015574,0.805152,0.058054,0.068656,-0.995950,-0.256235,0.078942,0.015313,33.171833,17.208696,-19.160725,,,,,,,
1508183860.302157,0.060027,-0.065916,-2.907944,0.098994,0.100774,0.815654,0.059861,0.065868,-0.996031,-0.342454,0.119038,0.030974,33.451691,16.632248,-19.183220,,,,,,,
1508183860.322177,0.063980,-0.061805,-2.893840,0.191214,0.178939,0.622474,0.063814,0.061765,-0.996049,-0.374925,0.159182,0.044358,33.605915,16.340858,-19.164078,,,,,,,
1508183860.342183,0.069168,-0.057194,-2.884288,0.194607,0.284751,0.444997,0.069000,0.057163,-0.995978,-0.401184,0.102460,0.037619,34.000179,15.627872,-19.063065,,,,,,,
1508183860.362176,0.075370,-0.053571,-2.876746,0.132156,0.288194,0.328767,0.075191,0.053545,-0.995731,-0.415523,0.122465,0.034030,34.182785,15.357187,-18.956184,,,,,,,
1508183860.382193,0.081681,-0.051304,-2.872769,0.082300,0.301356,0.145210,0.081482,0.051281,-0.995355,-0.395417,0.105945,0.051461,34.340042,15.151745,-18.836903,,,,,,,
1508183860.402178,0.086537,-0.050869,-2.871388,-0.026849,0.180169,0.034021,0.086317,0.050847,-0.994969,-0.247755,0.013026,0.036809,34.559307,14.979713,-18.571625,,,,,,,
1508183860.422207,0.088722,-0.052847,-2.871156,-0.121935,0.085467,-0.006120,0.088482,0.052823,-0.994676,-0.225262,0.036167,0.008211,34.612190,14.998822,-18.457373,,,,,,,
1508183860.442215,0.089781,-0.054466,-2.870970,-0.046840,0.031103,0.003142,0.089527,0.054439,-0.994496,-0.199803,0.091481,-0.013149,34.632118,15.030135,-18.394413,,,,,,,
1508183860.462219,0.089848,-0.054152,-2.871701,0.045101,-0.015653,-0.065558,0.089595,0.054125,-0.994506,-0.169612,0.098692,-0.005478,34.639538,15.039680,-18.372627,,,,,,,
1508183860.482211,0.089139,-0.053877,-2.873635,-0.000972,-0.033680,-0.100450,0.088891,0.053851,-0.994585,-0.065072,0.013959,0.018922,34.612099,15.081160,-18.390333,,,,,,,
1508183860.502233,0.087619,-0.054955,-2.875071,-0.073402,-0.098729,-0.056800,0.087375,0.054927,-0.994660,-0.040835,0.001530,0.011979,34.567894,15.150419,-18.416527,,,,,,,
1508183860.522237,0.084953,-0.056371,-2.875679,-0.050731,-0.141389,-0.033806,0.084716,0.056341,-0.994811,-0.051880,0.061381,-0.009141,34.497570,15.224207,-18.487410,,,,,,,
1508183860.542234,0.082099,-0.056866,-2.876608,-0.009130,-0.127496,-0.061763,0.081874,0.056836,-0.995021,-0.070628,0.058735,-0.004552,34.431774,15.264221,-18.576853,,,,,,,
1508183860.562242,0.080020,-0.057151,-2.878542,-0.009445,-0.086897,-0.122064,0.079804,0.057120,-0.995173,-0.078095,0.057077,-0.008001,34.382919,15.304881,-18.633797,,,,,,,
1508183860.582236,0.078913,-0.057645,-2.881767,-0.007683,-0.019677,-0.177422,0.078700,0.057613,-0.995232,-0.096492,0.051976,-0.004646,34.296982,15.429815,-18.689054,,,,,,,
1508183860.602236,0.078812,-0.058089,-2.885746,-0.005789,0.020879,-0.216398,0.078598,0.058056,-0.995214,-0.100067,0.057377,0.000830,34.236725,15.562627,-18.689417,,,,,,,
1508183860.622270,0.078730,-0.058289,-2.890029,0.018972,-0.016434,-0.204146,0.078515,0.058256,-0.995209,-0.103296,0.061022,-0.002120,34.206806,15.638149,-18.681168,,,,,,,
1508183860.642276,0.077070,-0.057602,-2.894053,0.067371,-0.096345,-0.200891,0.076866,0.057570,-0.995378,-0.163109,0.059129,-0.015257,34.093678,15.832136,-18.724518,,,,,,,
1508183860.662265,0.074938,-0.056309,-2.898973,0.083146,-0.080230,-0.271513,0.074750,0.056280,-0.995613,-0.190243,0.051539,-0.002312,34.014946,15.919566,-18.793446,,,,,,,
1508183860.682288,0.073031,-0.055477,-2.905579,0.056133,-0.087505,-0.358824,0.072854,0.055449,-0.995800,-0.199486,0.040697,-0.005039,33.927193,16.034687,-18.854105,,,,,,,
1508183860.702276,0.070599,-0.055273,-2.913897,0.031241,-0.088390,-0.446229,0.070432,0.055245,-0.995986,-0.258359,0.055152,0.000777,33.696335,16.379705,-18.971174,,,,,,,
1508183860.722290,0.068984,-0.055577,-2.924457,0.013479,-0.021003,-0.582613,0.068823,0.055549,-0.996081,-0.240988,0.086236,0.016452,33.557262,16.611355,-19.016207,,,,,,,
1508183860.742308,0.068228,-0.056159,-2.936890,0.017634,-0.023054,-0.623106,0.068067,0.056129,-0.996101,-0.215666,0.078529,0.015922,33.405388,16.898293,-19.030788,,,,,,,
1508183860.762312,0.064832,-0.056451,-2.948758,0.033368,-0.222358,-0.572244,0.064684,0.056421,-0.996310,-0.164965,0.037894,0.012362,33.057480,17.497900,-19.096321,,,,,,,
1508183860.782316,0.057154,-0.056511,-2.960094,0.028598,-0.420487,-0.573632,0.057032,0.056481,-0.996773,-0.221308,0.044028,0.007943,32.828369,17.767309,-19.242237,,,,,,,
1508183860.802327,0.047996,-0.056427,-2.973354,0.034365,-0.373302,-0.732133,0.047901,0.056397,-0.997259,-0.242832,0.062240,0.019674,32.552944,18.041664,-19.453712,,,,,,,
1508183860.822331,0.041843,-0.057049,-2.990276,-0.015813,-0.222776,-0.889959,0.041763,0.057018,-0.997499,-0.182632,0.026142,0.026048,32.141907,18.485754,-19.718460,,,,,,,
1508183860.842318,0.035668,-0.058596,-3.008317,-0.058408,-0.303704,-0.899416,0.035600,0.058563,-0.997649,-0.113816,-0.001037,0.019530,31.610064,19.193199,-19.901453,,,,,,,
1508183860.862344,0.026504,-0.060532,-3.025712,-0.072782,-0.455062,-0.850293,0.026453,0.060495,-0.997818,-0.126260,0.021841,0.021957,31.131393,19.777830,-20.082747,,,,,,,
1508183860.882350,0.017127,-0.062448,-3.042372,-0.086768,-0.395467,-0.819158,0.017092,0.062407,-0.997904,-0.081881,0.032045,0.010996,30.871525,20.058207,-20.205450,,,,,,,
1508183860.902346,0.006905,-0.064667,-3.058179,-0.123653,-0.536162,-0.772305,0.006890,0.064622,-0.997886,-0.010979,0.003371,-0.008233,30.111177,20.860502,-20.537756,,,,,,,
1508183860.922338,-0.007294,-0.067448,-3.072714,-0.138958,-0.708872,-0.699413,-0.007277,0.067397,-0.997700,-0.001298,-0.012176,-0.027569,29.701370,21.244528,-20.739855,,,,,,,
1508183860.942352,-0.022989,-0.069487,-3.088043,-0.096636,-0.705397,-0.844512,-0.022932,0.069431,-0.997323,0.021772,0.064175,0.013452,28.782978,21.962143,-21.280214,,,,,,,
1508183860.962374,-0.036524,-0.072079,-3.108180,-0.218660,-0.552633,-1.047101,-0.036421,0.072017,-0.996738,0.117857,-0.023219,0.015964,28.084312,22.557253,-21.588997,,,,,,,
1508183860.982381,-0.047672,-0.078076,-3.127695,-0.392769,-0.473034,-0.878582,-0.047509,0.077997,-0.995821,0.170998,-0.041757,-0.006025,27.733093,22.900551,-21.681404,,,,,,,
1508183861.002387,-0.058879,-0.084469,3.140009,-0.304300,-0.526666,-0.704064,-0.058636,0.084368,-0.994708,0.298901,0.036023,-0.037854,26.821058,23.840542,-21.815186,,,,,,,
1508183861.022372,-0.072236,-0.088289,3.126074,-0.227790,-0.652484,-0.653247,-0.071892,0.088174,-0.993507,0.383278,-0.036965,-0.048195,26.234865,24.319950,-21.998064,,,,,,,
1508183861.042370,-0.086109,-0.092615,3.115280,-0.268912,-0.624140,-0.439301,-0.085634,0.092483,-0.992025,0.385698,-0.051528,-0.054331,25.936802,24.535778,-22.111553,,,,,,,
1508183861.062341,-0.097662,-0.096624,3.106985,-0.203903,-0.461309,-0.372401,-0.097052,0.096474,-0.990593,0.321738,0.030098,-0.068764,25.203814,25.048042,-22.383171,,,,,,,
1508183861.082335,-0.104919,-0.098428,3.100638,-0.074607,-0.273026,-0.256869,-0.104220,0.098269,-0.989688,0.319170,0.002591,-0.074933,24.936211,25.236828,-22.470669,,,,,,,
1508183861.102354,-0.110403,-0.098799,3.097268,-0.030359,-0.238179,-0.109192,-0.109642,0.098638,-0.989065,0.307090,-0.009405,-0.081004,24.744530,25.357693,-22.546368,,,,,,,
1508183861.122360,-0.113447,-0.098642,3.096161,0.027182,-0.084930,-0.044280,-0.112654,0.098482,-0.988742,0.186628,0.045027,-0.041455,24.522907,25.446753,-22.687723,,,,,,,
1508183861.142341,-0.112972,-0.097063,3.094731,0.098194,0.082410,-0.102208,-0.112202,0.096911,-0.988948,0.166035,0.037305,0.001598,24.489948,25.453093,-22.716194,,,,,,,
1508183861.162373,-0.110817,-0.094972,3.093473,0.087616,0.114236,-0.035485,-0.110092,0.094830,-0.989387,0.147964,-0.009548,0.019615,24.479664,25.456924,-22.722986,,,,,,,
1508183861.182375,-0.108802,-0.093810,3.094189,0.044079,0.098091,0.053285,-0.108110,0.093672,-0.989716,0.068071,-0.036711,0.037842,24.506500,25.439690,-22.713358,,,,,,,
1508183861.202361,-0.105857,-0.093687,3.095003,-0.015106,0.184437,0.029685,-0.105196,0.093550,-0.990042,0.019777,-0.033552,0.030874,24.592991,25.388081,-22.677589,,,,,,,
1508183861.222392,-0.100813,-0.094369,3.095453,-0.030366,0.272866,0.024149,-0.100195,0.094229,-0.990496,0.008551,-0.025458,0.019487,24.698185,25.382235,-22.569555,,,,,,,
1508183861.242397,-0.095655,-0.094063,3.095242,0.039054,0.252728,-0.035324,-0.095087,0.093924,-0.991028,0.041010,0.002587,0.008408,24.851547,25.382853,-22.399876,,,,,,,
1508183861.262388,-0.090417,-0.093704,3.094679,-0.018691,0.265479,-0.012007,-0.089897,0.093567,-0.991546,0.112374,-0.027726,0.017974,24.950344,25.387238,-22.284782,,,,,,,
1508183861.282410,-0.084310,-0.095626,3.094984,-0.133201,0.334630,0.046789,-0.083825,0.095481,-0.991896,0.172219,0.002572,0.015501,25.043324,25.403631,-22.161463,,,,,,,
1508183861.302415,-0.076569,-0.098904,3.096929,-0.151180,0.391923,0.164331,-0.076121,0.098743,-0.992197,0.197169,0.012127,0.007853,25.124968,25.420849,-22.049023,,,,,,,
1508183861.322417,-0.069071,-0.101272,3.102596,-0.066799,0.295665,0.363959,-0.068662,0.101099,-0.992504,0.294782,0.020117,-0.030628,25.565456,25.367611,-21.599413,,,,,,,
1508183861.342430,-0.064173,-0.102340,3.111909,0.000427,0.167510,0.519314,-0.063793,0.102162,-0.992720,0.291470,-0.009190,-0.037202,25.721647,25.280951,-21.515421,,,,,,,
1508183861.362433,-0.058446,-0.102537,3.123009,0.032243,0.299527,0.551497,-0.058106,0.102357,-0.993049,0.196014,-0.032075,-0.022332,26.236290,24.874659,-21.367064,,,,,,,
1508183861.382414,-0.048135,-0.102628,3.133798,0.012181,0.545646,0.528750,-0.047863,0.102448,-0.993586,0.209743,-0.048050,-0.009450,26.673830,24.575661,-21.170422,,,,,,,
1508183861.402422,-0.035347,-0.103577,-3.138927,-0.046831,0.589353,0.519630,-0.035150,0.103392,-0.994019,0.226663,-0.047698,-0.016387,26.921530,24.433424,-21.020990,,,,,,,
1508183861.422426,-0.021447,-0.104856,-3.127044,-0.025135,0.647648,0.663785,-0.021328,0.104664,-0.994279,0.230236,-0.028584,-0.029891,27.696079,24.014513,-20.490810,,,,,,,
1508183861.442442,-0.008382,-0.104198,-3.110660,0.084157,0.498011,0.902592,-0.008336,0.104010,-0.994541,0.210744,-0.024862,-0.041820,28.301216,23.584867,-20.160313,,,,,,,
1508183861.462466,0.001557,-0.102184,-3.090495,0.104348,0.340066,1.045619,0.001548,0.102006,-0.994783,0.173134,-0.028047,-0.032424,28.613937,23.302719,-20.046665,,,,,,,
1508183861.482471,0.009769,-0.100979,-3.068735,0.017941,0.301644,1.093158,0.009719,0.100808,-0.994858,0.062806,-0.023370,-0.029266,29.533722,22.335674,-19.812117,,,,,,,
1508183861.502471,0.019127,-0.101401,-3.046907,-0.059458,0.406085,1.078906,0.019028,0.101228,-0.994681,0.008896,0.018722,-0.047021,30.143860,21.692629,-19.606644,,,,,,,
1508183861.522485,0.029765,-0.101527,-3.025173,-0.002720,0.407119,1.087379,0.029608,0.101353,-0.994410,-0.016454,0.028622,-0.069830,30.457590,21.377480,-19.467445,,,,,,,
1508183861.542491,0.039202,-0.099199,-3.002973,0.139924,0.316502,1.105647,0.039000,0.099037,-0.994319,-0.070433,0.064965,-0.080006,31.373196,20.351965,-19.109241,,,,,,,
1508183861.562468,0.046892,-0.094707,-2.981662,0.181575,0.281453,1.048544,0.046664,0.094566,-0.994424,-0.086475,0.036507,-0.036841,31.785954,19.788536,-19.018675,,,,,,,
1508183861.582505,0.054655,-0.091253,-2.960902,0.072396,0.288944,1.045318,0.054400,0.091126,-0.994352,-0.082217,0.035720,-0.015993,32.173622,19.234070,-18.935455,,,,,,,
1508183861.602509,0.060198,-0.089394,-2.939363,0.019613,0.093930,1.089772,0.059921,0.089275,-0.994203,-0.126358,0.064686,-0.013640,32.907761,18.163406,-18.730001,,,,,,,
1508183861.622490,0.061659,-0.087457,-2.918248,0.049793,-0.056137,1.020483,0.061384,0.087345,-0.994285,-0.233656,0.090877,0.027580,33.209129,17.621155,-18.716078,,,,,,,
1508183861.642523,0.063775,-0.083337,-2.898846,0.207540,0.085626,0.957530,0.063510,0.083241,-0.994504,-0.287372,0.109035,0.033383,33.461422,17.094910,-18.754736,,,,,,,
1508183861.662508,0.067450,-0.078953,-2.882024,0.106235,0.117992,0.765202,0.067189,0.078871,-0.994618,-0.272313,0.068407,0.058598,33.966431,16.060558,-18.761209,,,,,,,
1508183861.682524,0.070443,-0.078584,-2.868658,-0.082457,0.071476,0.611405,0.070167,0.078503,-0.994441,-0.283363,0.107761,0.016658,34.229946,15.572803,-18.693354,,,,,,,
1508183861.702541,0.071889,-0.079533,-2.858868,-0.067018,0.061216,0.413210,0.071600,0.079449,-0.994264,-0.344611,0.133945,0.018053,34.370632,15.309448,-18.652700,,,,,,,
1508183861.722547,0.075105,-0.079414,-2.852155,-0.004591,0.156269,0.281696,0.074798,0.079330,-0.994038,-0.313567,0.136795,0.002476,34.559719,14.998638,-18.555580,,,,,,,
1508183861.742552,0.078313,-0.079418,-2.847805,-0.032623,0.130886,0.193582,0.077986,0.079334,-0.993793,-0.261244,0.109585,-0.001019,34.686100,14.837338,-18.449141,,,,,,,
1508183861.762559,0.080964,-0.079886,-2.843785,-0.023956,0.099983,0.198289,0.080617,0.079801,-0.993546,-0.267431,0.109622,0.002060,34.738510,14.777395,-18.398567,,,,,,,
1508183861.782539,0.082158,-0.079636,-2.840753,0.009182,0.022375,0.117284,0.081805,0.079552,-0.993468,-0.229022,0.097313,0.013564,34.864929,14.599178,-18.301466,,,,,,,
1508183861.802550,0.082359,-0.079419,-2.839106,0.001590,0.003300,0.068517,0.082007,0.079336,-0.993469,-0.199881,0.070765,0.023422,34.895603,14.530820,-18.297403,,,,,,,
1508183861.822567,0.082745,-0.079696,-2.838254,-0.033924,0.024699,0.025581,0.082388,0.079611,-0.993415,-0.187292,0.063272,0.034217,34.905697,14.509061,-18.295420,,,,,,,
1508183861.842584,0.082792,-0.081082,-2.838196,-0.086371,-0.028445,-0.026924,0.082426,0.080993,-0.993301,-0.123075,0.046327,0.021041,34.923141,14.511000,-18.260557,,,,,,,
1508183861.862578,0.081089,-0.082804,-2.839564,-0.069267,-0.097553,-0.095244,0.080723,0.082709,-0.993299,-0.128285,0.031732,-0.004290,34.883553,14.582310,-18.279413,,,,,,,
1508183861.882597,0.079509,-0.083913,-2.842358,-0.035491,-0.034540,-0.181488,0.079145,0.083814,-0.993333,-0.139463,0.034747,-0.005034,34.851044,14.629372,-18.303801,,,,,,,
1508183861.902603,0.079245,-0.085340,-2.847169,-0.060595,0.029567,-0.275167,0.078874,0.085236,-0.993234,-0.125352,0.043441,-0.012610,34.748920,14.856957,-18.314646,,,,,,,
1508183861.922599,0.080030,-0.086935,-2.853105,-0.051217,0.073315,-0.313129,0.079642,0.086826,-0.993035,-0.125159,0.063412,-0.041908,34.681305,15.080769,-18.259802,,,,,,,
1508183861.942617,0.080636,-0.087878,-2.859727,0.007635,0.040339,-0.343618,0.080238,0.087764,-0.992904,-0.125404,0.071736,-0.048935,34.646503,15.199311,-18.227554,,,,,,,
1508183861.962622,0.079629,-0.087338,-2.866812,0.076380,-0.051282,-0.346606,0.079242,0.087227,-0.993032,-0.158282,0.078498,-0.039759,34.500755,15.546020,-18.211594,,,,,,,
1508183861.982604,0.077430,-0.085382,-2.874162,0.159883,-0.088542,-0.368520,0.077071,0.085279,-0.993372,-0.232573,0.098010,-0.021322,34.401485,15.700144,-18.267084,,,,,,,
1508183862.002635,0.074078,-0.082301,-2.882234,0.184557,-0.156638,-0.411270,0.073759,0.082208,-0.993882,-0.260039,0.084174,-0.016692,34.289249,15.846715,-18.351345,,,,,,,
1508183862.022640,0.070992,-0.080040,-2.892421,0.120737,-0.077516,-0.550988,0.070705,0.079955,-0.994288,-0.305446,0.090058,0.031855,34.004528,16.198942,-18.572271,,,,,,,
1508183862.042632,0.069138,-0.079058,-2.904852,0.082925,-0.062399,-0.648213,0.068867,0.078976,-0.994495,-0.291310,0.086231,0.013080,33.848515,16.463608,-18.624464,,,,,,,
1508183862.062654,0.065514,-0.078679,-2.919369,0.056079,-0.149524,-0.756758,0.065264,0.078598,-0.994768,-0.278338,0.079010,0.010255,33.597908,16.882622,-18.702957,,,,,,,
1508183862.082659,0.061541,-0.078875,-2.935249,0.037609,-0.116386,-0.812672,0.061311,0.078793,-0.995004,-0.314378,0.074924,0.004037,33.363598,17.246014,-18.790644,,,,,,,
1508183862.102660,0.058092,-0.078468,-2.952840,0.089715,-0.110881,-0.908758,0.057880,0.078387,-0.995241,-0.275196,0.069562,-0.007566,32.947971,17.902391,-18.909748,,,,,,,
1508183862.122672,0.053718,-0.077922,-2.971797,0.068314,-0.164040,-0.957021,0.053529,0.077843,-0.995528,-0.243730,0.040260,-0.005342,32.570210,18.468639,-19.019304,,,,,,,
1508183862.142671,0.049098,-0.077589,-2.991777,0.076529,-0.120235,-1.023773,0.048930,0.077512,-0.995790,-0.186794,0.090472,0.026155,32.362900,18.764223,-19.083752,,,,,,,
1508183862.162657,0.046220,-0.076646,-3.012552,0.107486,-0.071285,-1.002114,0.046068,0.076571,-0.995999,-0.067263,0.036680,0.045651,31.707726,19.692862,-19.247196,,,,,,,
1508183862.182674,0.039561,-0.075319,-3.030609,0.101479,-0.412451,-0.855344,0.039439,0.075247,-0.996385,-0.000391,0.003549,0.038819,31.386061,20.134623,-19.317225,,,,,,,
1508183862.202697,0.028785,-0.074382,-3.047634,0.043887,-0.448707,-0.829184,0.028701,0.074314,-0.996822,0.005570,0.004529,0.084957,30.621204,20.883369,-19.745119,,,,,,,
1508183862.222685,0.020550,-0.075710,-3.062902,-0.108111,-0.316789,-0.724353,0.020490,0.075638,-0.996925,0.103137,-0.011353,0.074256,30.133986,21.366440,-19.976515,,,,,,,
1508183862.242709,0.012310,-0.080292,-3.077433,-0.254425,-0.425384,-0.735464,0.012270,0.080205,-0.996703,0.184538,-0.013845,0.035842,29.916080,21.610704,-20.041174,,,,,,,
1508183862.262715,-0.000305,-0.086325,-3.092500,-0.307457,-0.620244,-0.767786,-0.000303,0.086218,-0.996276,0.237700,-0.011923,-0.077439,29.149454,22.425327,-20.274542,,,,,,,
1508183862.282720,-0.012270,-0.091148,-3.108130,-0.191407,-0.444468,-0.788549,-0.012219,0.091022,-0.995774,0.210828,0.052121,-0.092636,28.565514,22.982880,-20.480274,,,,,,,
1508183862.302727,-0.020059,-0.093326,-3.124646,-0.095748,-0.259080,-0.819033,-0.019971,0.093190,-0.995448,0.254193,0.037043,-0.092519,28.295856,23.245762,-20.557775,,,,,,,
1508183862.322725,-0.026711,-0.094574,-3.139875,-0.076165,-0.257136,-0.714609,-0.026588,0.094433,-0.995176,0.296516,0.010151,-0.054583,27.560120,23.973225,-20.721178,,,,,,,
1508183862.342722,-0.033158,-0.095174,3.131311,-0.033623,-0.300177,-0.503956,-0.033002,0.095030,-0.994927,0.258084,-0.023650,-0.037925,27.238001,24.270864,-20.800468,,,,,,,
1508183862.362746,-0.040448,-0.095072,3.123396,0.005313,-0.303632,-0.379178,-0.040254,0.094929,-0.994670,0.238558,-0.023624,-0.022649,26.960266,24.486107,-20.909746,,,,,,,
1508183862.382752,-0.044979,-0.094399,3.114405,0.017291,-0.127660,-0.485170,-0.044763,0.094259,-0.994541,0.241632,0.005748,0.034092,26.491745,24.809763,-21.125957,,,,,,,
1508183862.402739,-0.047630,-0.094985,3.105244,-0.108845,-0.075607,-0.397327,-0.047398,0.094843,-0.994363,0.235890,-0.075540,0.004999,26.210981,25.068665,-21.170488,,,,,,,
1508183862.422766,-0.049826,-0.097844,3.099734,-0.160562,-0.093047,-0.192305,-0.049568,0.097688,-0.993982,0.204948,-0.067674,-0.017874,26.056763,25.246563,-21.149446,,,,,,,
1508183862.442771,-0.051386,-0.099851,3.096717,-0.076106,-0.017526,-0.147613,-0.051108,0.099685,-0.993706,0.181235,0.002839,-0.020424,25.983145,25.337421,-21.131355,,,,,,,
1508183862.462767,-0.051077,-0.100382,3.093563,-0.010946,0.027186,-0.141913,-0.050798,0.100213,-0.993668,0.185350,-0.012521,-0.039993,25.848028,25.510469,-21.088821,,,,,,,
1508183862.482785,-0.020884,-0.095942,3.094714,0.041878,0.003659,-0.052033,-0.020787,0.095795,-0.995184,0.099827,-0.023347,-0.028864,26.482197,25.424320,-20.394609,,,,,,,
1508183862.502788,-0.020516,-0.094530,3.094759,0.089132,0.024808,0.020134,-0.020423,0.094389,-0.995326,0.049323,-0.008085,-0.001790,26.468575,25.416859,-20.421581,,,,,,,
1508183862.522795,-0.019202,-0.092709,3.094840,0.084524,0.101568,-0.010833,-0.019118,0.092576,-0.995522,0.039122,0.003646,0.035744,26.492500,25.373867,-20.444004,,,,,,,
1508183862.542780,-0.016547,-0.091774,3.094894,0.012802,0.142008,0.017425,-0.016476,0.091645,-0.995655,0.043439,-0.006669,0.038014,26.512474,25.360226,-20.435032,,,,,,,
1508183862.562809,-0.013298,-0.092613,3.095978,-0.064104,0.165335,0.081122,-0.013240,0.092481,-0.995626,0.118557,0.001147,0.017401,26.621204,25.338579,-20.320211,,,,,,,
1508183862.582793,-0.009718,-0.093853,3.098633,-0.043502,0.170480,0.169535,-0.009675,0.093715,-0.995552,0.163621,0.033101,0.000587,26.744297,25.306061,-20.198738,,,,,,,
1508183862.602822,-0.005454,-0.094012,3.103377,0.014537,0.195827,0.271489,-0.005430,0.093873,-0.995569,0.182356,0.043319,0.007761,26.825924,25.264196,-20.142820,,,,,,,
1508183862.622827,-0.001326,-0.093807,3.109610,-0.008741,0.169088,0.328408,-0.001320,0.093670,-0.995602,0.297799,0.007679,0.040509,27.147512,25.034370,-19.998394,,,,,,,
1508183862.642812,0.004062,-0.095744,3.117376,-0.151059,0.292467,0.440820,0.004043,0.095598,-0.995412,0.361801,-0.015291,0.046300,27.406717,24.863535,-19.857481,,,,,,,
1508183862.662841,0.012131,-0.099592,3.128623,-0.209555,0.378388,0.629420,0.012070,0.099427,-0.994972,0.388091,0.010573,0.023841,27.582478,24.768435,-19.732574,,,,,,,
1508183862.682846,0.020693,-0.102314,-3.138892,-0.093025,0.313969,0.868052,0.020584,0.102136,-0.994557,0.397828,0.037574,-0.045283,28.024279,24.509792,-19.430717,,,,,,,
1508183862.702847,0.028193,-0.101728,-3.119611,0.051924,0.284921,0.993121,0.028044,0.101552,-0.994435,0.317949,0.030513,-0.018550,28.695862,23.944687,-19.153131,,,,,,,
1508183862.722859,0.038342,-0.099563,-3.098925,0.069761,0.475465,1.057522,0.038143,0.099399,-0.994316,0.268056,0.005948,-0.000587,29.132790,23.500053,-19.043924,,,,,,,
1508183862.742865,0.050063,-0.097990,-3.076487,0.002803,0.440113,1.165781,0.049802,0.097833,-0.993956,0.170687,-0.071100,-0.011690,30.131910,22.515316,-18.675426,,,,,,,
1508183862.762847,0.059608,-0.097224,-3.051760,-0.040500,0.337697,1.248338,0.059291,0.097071,-0.993510,0.047780,-0.032908,0.003062,30.642738,21.972466,-18.489897,,,,,,,
1508183862.782878,0.070117,-0.096383,-3.026725,-0.038690,0.444229,1.243593,0.069734,0.096234,-0.992913,-0.032304,-0.026623,-0.002158,31.143747,21.405329,-18.317259,,,,,,,
1508183862.802884,0.081806,-0.095575,-3.002289,-0.053930,0.459278,1.177275,0.081342,0.095430,-0.992107,-0.129896,-0.020189,-0.061436,31.823313,20.636324,-18.029472,,,,,,,
1508183862.822888,0.093178,-0.094770,-2.980260,-0.043691,0.480826,1.054330,0.092626,0.094629,-0.991194,-0.204580,0.022513,-0.078188,32.621696,19.715773,-17.628273,,,,,,,
1508183862.842896,0.104196,-0.092850,-2.960154,0.013994,0.422391,0.970896,0.103559,0.092716,-0.990292,-0.235746,0.068752,-0.082278,33.193787,19.038376,-17.301899,,,,,,,
1508183862.862901,0.113211,-0.091091,-2.942247,-0.036447,0.340621,0.850562,0.112501,0.090965,-0.989479,-0.262389,0.056480,-0.058601,33.454494,18.708635,-17.158867,,,,,,,
1508183862.882889,0.121789,-0.090536,-2.926005,-0.072013,0.363115,0.792682,0.120990,0.090412,-0.988528,-0.291111,0.081417,-0.035596,34.115524,17.840481,-16.777699,,,,,,,
1508183862.902889,0.129873,-0.089737,-2.909927,-0.041838,0.305558,0.806290,0.128988,0.089617,-0.987589,-0.286199,0.099898,-0.039770,34.416145,17.450047,-16.573099,,,,,,,
1508183862.922913,0.135442,-0.086729,-2.893711,0.096769,0.118033,0.811038,0.134521,0.086620,-0.987118,-0.314163,0.164189,-0.051426,34.969139,16.612860,-16.273140,,,,,,,
1508183862.942900,0.136926,-0.081852,-2.880299,0.168139,0.000188,0.603698,0.136041,0.081760,-0.987324,-0.345849,0.155758,-0.007046,35.228466,16.045143,-16.283472,,,,,,,
1508183862.962928,0.138914,-0.078341,-2.870709,0.034598,0.117709,0.447480,0.138043,0.078261,-0.987329,-0.348904,0.122178,0.032968,35.228466,16.045143,-16.283472,,,,,,,
1508183862.982939,0.142995,-0.078336,-2.862756,-0.095310,0.179678,0.370972,0.142072,0.078256,-0.986758,-0.247922,0.111274,0.041583,35.587315,15.335146,-16.187004,,,,,,,
1508183863.002947,0.145962,-0.079443,-2.855122,-0.096021,0.065684,0.377957,0.144985,0.079359,-0.986246,-0.202297,0.137178,0.003458,35.746292,15.108734,-16.049046,,,,,,,
1508183863.022952,0.145079,-0.078299,-2.846549,0.053679,-0.175249,0.454913,0.144128,0.078219,-0.986463,-0.210961,0.139784,-0.016513,35.811611,14.982859,-16.021397,,,,,,,
1508183863.042959,0.140217,-0.075089,-2.839253,0.116619,-0.281476,0.298594,0.139365,0.075019,-0.987395,-0.251105,0.118631,0.029205,35.908680,14.495190,-16.251122,,,,,,,
1508183863.062965,0.137873,-0.074129,-2.835883,-0.049490,-0.023305,0.126499,0.137059,0.074061,-0.987790,-0.227666,0.056752,0.032483,35.907490,14.318481,-16.409641,,,,,,,
1508183863.082971,0.139587,-0.076671,-2.833695,-0.176369,0.119585,0.068008,0.138726,0.076596,-0.987364,-0.197045,0.079151,0.015608,35.937805,14.280218,-16.376583,,,,,,,
1508183863.102977,0.142085,-0.079263,-2.831796,-0.103426,0.087558,0.094009,0.141163,0.079180,-0.986815,-0.185871,0.078230,-0.020586,35.981262,14.283965,-16.277594,,,,,,,
1508183863.122984,0.141956,-0.079572,-2.829709,0.008338,-0.091398,0.078393,0.141032,0.079488,-0.986809,-0.146144,0.083887,-0.031578,36.047344,14.241818,-16.167953,,,,,,,
1508183863.142971,0.140261,-0.079413,-2.829397,-0.006003,-0.039028,-0.006593,0.139361,0.079329,-0.987059,-0.150683,0.051011,-0.016557,36.043533,14.199632,-16.213486,,,,,,,
1508183863.162996,0.140769,-0.080018,-2.829956,-0.035321,0.054812,-0.052717,0.139856,0.079933,-0.986940,-0.159799,0.038109,-0.027830,36.024887,14.199728,-16.254803,,,,,,,
1508183863.182982,0.142048,-0.081059,-2.831887,-0.034555,0.070948,-0.131858,0.141106,0.080970,-0.986678,-0.164818,0.041710,-0.026948,36.023884,14.286963,-16.180401,,,,,,,
1508183863.203009,0.143118,-0.081918,-2.835074,-0.000459,0.068903,-0.178771,0.142152,0.081827,-0.986457,-0.155595,0.060492,-0.024316,36.008911,14.373475,-16.137058,,,,,,,
1508183863.223014,0.143738,-0.081574,-2.839150,0.063818,0.016740,-0.203654,0.142767,0.081483,-0.986396,-0.151480,0.065200,-0.030342,35.994698,14.437573,-16.111525,,,,,,,
1508183863.243010,0.142681,-0.080446,-2.843645,0.104585,-0.048196,-0.230467,0.141738,0.080359,-0.986637,-0.197234,0.052026,-0.022396,35.899555,14.657875,-16.124874,,,,,,,
1508183863.263010,0.101545,-0.087713,-2.852853,0.091340,-0.001306,-0.310052,0.100981,0.087600,-0.991024,-0.182036,0.041535,0.006527,35.834045,14.766010,-16.171864,,,,,,,
1508183863.283006,0.101658,-0.087099,-2.859514,0.052664,0.032824,-0.326513,0.101099,0.086989,-0.991066,-0.164026,0.056642,-0.008156,34.985580,15.301672,-17.478874,,,,,,,
1508183863.303040,0.099628,-0.086365,-2.865793,0.093978,-0.157917,-0.299253,0.099092,0.086257,-0.991333,-0.169771,0.072846,-0.033524,34.879440,15.501115,-17.515219,,,,,,,
1508183863.323024,0.064893,-0.093969,-2.874683,0.176678,-0.276246,-0.304029,0.064561,0.093831,-0.993493,-0.172730,0.066264,-0.032585,34.801189,15.586349,-17.595053,,,,,,,
1508183863.343052,0.058951,-0.090552,-2.882465,0.198545,-0.226968,-0.445511,0.058675,0.090428,-0.994173,-0.260549,0.094859,-0.005812,33.918182,16.120455,-18.797094,,,,,,,
1508183863.363059,0.055421,-0.087840,-2.894161,0.148247,-0.067862,-0.632251,0.055179,0.087727,-0.994615,-0.242831,0.094325,0.013765,33.684723,16.408340,-18.967041,,,,,,,
1508183863.383065,0.052500,-0.085739,-2.907087,0.152780,-0.150956,-0.629983,0.052283,0.085634,-0.994954,-0.211234,0.085662,0.001485,33.568256,16.595465,-19.010674,,,,,,,
1508183863.403071,0.045658,-0.082436,-2.919441,0.218784,-0.357702,-0.592913,0.045487,0.082342,-0.995566,-0.224640,0.077890,0.003454,33.146389,17.125528,-19.278902,,,,,,,
1508183863.423077,0.037367,-0.078136,-2.931926,0.238881,-0.325664,-0.636045,0.037245,0.078057,-0.996253,-0.229612,0.100212,0.049338,32.793503,17.430922,-19.605915,,,,,,,
1508183863.443085,0.031333,-0.074865,-2.944825,0.147725,-0.242580,-0.622253,0.031240,0.074795,-0.996709,-0.204000,0.078525,0.052221,32.621571,17.595209,-19.745493,,,,,,,
1508183863.463088,0.022996,-0.072773,-2.957452,0.126891,-0.482166,-0.665680,0.022933,0.072708,-0.997090,-0.117691,0.092956,0.009968,32.115318,18.113506,-20.103489,,,,,,,
1508183863.483092,0.011325,-0.070061,-2.973809,0.155163,-0.508374,-0.880714,0.011297,0.070004,-0.997483,-0.106893,0.082096,0.040238,31.758530,18.421242,-20.388641,,,,,,,
1508183863.503103,0.000470,-0.067670,-2.991168,0.106014,-0.476508,-0.828891,0.000469,0.067618,-0.997711,-0.077725,0.052789,0.037994,31.357468,18.788204,-20.672579,,,,,,,
1508183863.523108,-0.011847,-0.066648,-3.006954,-0.010150,-0.594796,-0.790834,-0.011821,0.066598,-0.997710,-0.011159,0.016455,0.019057,30.833481,19.264969,-21.019051,,,,,,,
1508183863.543089,-0.024690,-0.067051,-3.024296,-0.049148,-0.584924,-0.928501,-0.024632,0.067001,-0.997449,0.077549,0.048966,0.005628,29.983242,20.007708,-21.548546,,,,,,,
1508183863.563121,-0.037724,-0.068143,-3.045036,-0.112722,-0.577194,-1.057587,-0.037628,0.068090,-0.996969,0.110931,0.013346,-0.011194,29.494558,20.466188,-21.791031,,,,,,,
1508183863.583127,-0.050494,-0.070609,-3.066220,-0.189782,-0.568659,-1.054454,-0.050347,0.070550,-0.996237,0.163964,0.006918,-0.028803,28.633049,21.307039,-22.131460,,,,,,,
1508183863.603134,-0.063501,-0.072485,-3.088332,-0.152545,-0.569599,-1.121646,-0.063292,0.072422,-0.995364,0.258116,0.022274,-0.028364,27.911694,21.990885,-22.382608,,,,,,,
1508183863.623140,-0.076022,-0.074596,-3.110182,-0.211215,-0.532481,-1.031504,-0.075738,0.074527,-0.994339,0.322702,-0.030291,-0.007767,27.351633,22.506897,-22.560379,,,,,,,
1508183863.643144,-0.088013,-0.078515,-3.129811,-0.283561,-0.535910,-0.905577,-0.087628,0.078435,-0.993061,0.352338,-0.044636,-0.031765,26.991943,22.836523,-22.662106,,,,,,,
1508183863.663152,-0.100177,-0.081881,3.136563,-0.224305,-0.528730,-0.774570,-0.099675,0.081790,-0.991653,0.345006,-0.006304,-0.072388,25.826418,23.885775,-22.937061,,,,,,,
1508183863.683150,-0.109430,-0.083568,3.121717,-0.118750,-0.321179,-0.703018,-0.108831,0.083470,-0.990550,0.338933,0.028041,-0.064062,25.388710,24.245001,-23.048563,,,,,,,
1508183863.703143,-0.115145,-0.083837,3.108197,-0.084670,-0.180733,-0.625108,-0.114487,0.083739,-0.989889,0.389420,-0.025420,-0.063852,24.798891,24.741718,-23.162586,,,,,,,
1508183863.723171,-0.118521,-0.083930,3.098421,-0.020999,-0.119408,-0.403188,-0.117827,0.083832,-0.989489,0.351836,-0.003357,-0.086271,24.464333,25.042933,-23.194630,,,,,,,
1508183863.743178,-0.120989,-0.082031,3.091670,0.087139,-0.052485,-0.323201,-0.120288,0.081939,-0.989352,0.330630,0.019852,-0.067228,24.339296,25.137962,-23.223360,,,,,,,
1508183863.763183,-0.121153,-0.079250,3.087515,0.127141,0.006798,-0.142820,-0.120478,0.079167,-0.989554,0.310175,-0.040425,-0.011361,24.090641,25.289516,-23.317898,,,,,,,
1508183863.783190,-0.122390,-0.076228,3.087470,0.163370,-0.103296,0.040021,-0.121731,0.076154,-0.989637,0.236004,-0.048780,-0.013460,24.041161,25.255714,-23.405436,,,,,,,
1508183863.803196,-0.124108,-0.073492,3.089155,0.121475,-0.036197,0.050809,-0.123456,0.073426,-0.989630,0.178006,-0.048509,0.002447,24.027914,25.204535,-23.474108,,,,,,,
1508183863.823202,-0.121587,-0.072121,3.088900,0.034785,0.209050,-0.060379,-0.120972,0.072059,-0.990037,0.096558,-0.017951,0.031053,24.056503,25.106775,-23.549469,,,,,,,
1508183863.843191,-0.116763,-0.071726,3.087744,0.017668,0.237761,-0.033059,-0.116198,0.071665,-0.990637,0.121767,-0.026346,0.004431,24.135080,25.130766,-23.443237,,,,,,,
1508183863.863215,-0.112943,-0.070203,3.088385,0.112332,0.153431,0.043800,-0.112425,0.070145,-0.991181,0.097975,-0.000642,-0.009185,24.210241,25.118242,-23.379072,,,,,,,
1508183863.883221,-0.109653,-0.067966,3.089415,0.098271,0.191805,0.032591,-0.109180,0.067914,-0.991699,0.100269,-0.009305,0.018463,24.326704,25.026495,-23.356562,,,,,,,
1508183863.903212,-0.104723,-0.067035,3.090364,0.033951,0.250374,0.049917,-0.104297,0.066984,-0.992288,0.189395,0.018328,0.013421,24.452198,24.976639,-23.278759,,,,,,,
1508183863.923234,-0.100257,-0.066809,3.091811,0.010638,0.209834,0.083578,-0.099866,0.066759,-0.992759,0.210049,0.010237,0.021796,24.556129,24.945831,-23.202261,,,,,,,
1508183863.943231,-0.094929,-0.066893,3.094719,0.010837,0.271383,0.201045,-0.094574,0.066843,-0.993271,0.224106,-0.014231,0.007904,24.663197,24.910267,-23.126787,,,,,,,
1508183863.963246,-0.089118,-0.066861,3.100542,0.050798,0.277526,0.320352,-0.088802,0.066811,-0.993806,0.256984,0.010460,-0.017272,24.942173,24.777927,-22.969225,,,,,,,
1508183863.983253,-0.082319,-0.066056,3.106955,0.070849,0.349998,0.300092,-0.082047,0.066008,-0.994440,0.244873,0.024263,-0.015188,25.155985,24.641983,-22.882133,,,,,,,
1508183864.003259,-0.072795,-0.065472,3.112212,0.039113,0.522693,0.240031,-0.072575,0.065425,-0.995215,0.285359,0.029561,0.015494,25.462124,24.457069,-22.741478,,,,,,,
1508183864.023264,-0.061006,-0.065251,3.117508,0.023095,0.586475,0.308428,-0.060839,0.065205,-0.996016,0.317873,-0.013325,0.014448,25.902164,24.275999,-22.436502,,,,,,,
1508183864.043270,-0.049793,-0.064787,3.126964,0.081025,0.453863,0.563021,-0.049668,0.064742,-0.996665,0.311173,-0.021696,0.003349,26.211950,24.144783,-22.217247,,,,,,,
1508183864.063264,-0.041789,-0.062977,3.140033,0.122392,0.350279,0.686050,-0.041694,0.062935,-0.997146,0.234901,0.007896,0.022262,26.908728,23.632763,-21.932983,,,,,,,
1508183864.083284,-0.032918,-0.062124,-3.128631,0.021767,0.413063,0.731066,-0.032848,0.062084,-0.997530,0.196560,-0.003567,0.035372,27.279325,23.311155,-21.819054,,,,,,,
1508183864.103272,-0.023474,-0.063748,-3.114354,-0.099343,0.444048,0.699785,-0.023424,0.063705,-0.997694,0.191256,-0.010605,0.038023,27.667149,23.003599,-21.656551,,,,,,,
1508183864.123296,-0.013847,-0.066758,-3.100587,-0.158210,0.431311,0.684019,-0.013815,0.066709,-0.997677,0.096198,-0.007306,0.031475,28.425209,22.480358,-21.219894,,,,,,,
1508183864.143302,-0.002596,-0.070800,-3.086476,-0.202327,0.573955,0.738498,-0.002590,0.070741,-0.997491,0.066417,-0.021120,-0.010108,28.935387,22.161444,-20.862810,,,,,,,
1508183864.163310,0.010396,-0.074284,-3.070504,-0.158181,0.575902,0.824807,0.010367,0.074216,-0.997188,0.048180,-0.009229,-0.028050,29.222534,21.983673,-20.649565,,,,,,,
1508183864.183314,0.021167,-0.075739,-3.054417,-0.060565,0.431121,0.767120,0.021104,0.075667,-0.996910,0.048430,0.049165,-0.065926,30.079920,21.345211,-20.080421,,,,,,,
1508183864.203321,0.030020,-0.076949,-3.039481,-0.106554,0.397093,0.743123,0.029927,0.076873,-0.996592,0.016383,0.037598,-0.046789,30.553682,20.918295,-19.812632,,,,,,,
1508183864.223329,0.038765,-0.079823,-3.023926,-0.207896,0.337380,0.785651,0.038632,0.079738,-0.996067,-0.017285,0.016804,-0.055843,30.788448,20.712513,-19.664850,,,,,,,
1508183864.243333,0.046290,-0.082643,-3.008191,-0.107266,0.309682,0.774248,0.046115,0.082549,-0.995519,-0.091037,0.080888,-0.087534,31.246164,20.304977,-19.365641,,,,,,,
1508183864.263339,0.054078,-0.082789,-2.992937,-0.026198,0.361921,0.742507,0.053867,0.082695,-0.995118,-0.108387,0.079613,-0.059341,31.887136,19.636744,-19.006622,,,,,,,
1508183864.283347,0.062297,-0.081773,-2.978336,0.018838,0.308688,0.722985,0.062049,0.081682,-0.994725,-0.103782,0.077986,-0.060008,32.207138,19.285240,-18.826122,,,,,,,
1508183864.303351,0.066708,-0.079958,-2.963670,0.075338,0.052955,0.754376,0.066445,0.079873,-0.994588,-0.181832,0.041999,-0.066752,32.500816,18.929007,-18.682411,,,,,,,
1508183864.323359,0.067873,-0.077014,-2.950349,0.113336,0.032022,0.575492,0.067620,0.076938,-0.994740,-0.278344,0.107282,-0.000133,32.878525,18.295000,-18.653112,,,,,,,
1508183864.343365,0.071585,-0.074768,-2.941748,0.058610,0.238005,0.385943,0.071324,0.074698,-0.994652,-0.287831,0.089578,0.016320,33.045399,17.979422,-18.665066,,,,,,,
1508183864.363353,0.077467,-0.074478,-2.934375,-0.042049,0.233822,0.359421,0.077175,0.074410,-0.994237,-0.228542,0.041862,0.017354,33.264805,17.688295,-18.553169,,,,,,,
1508183864.383377,0.080671,-0.074072,-2.926823,0.032323,0.070788,0.376658,0.080362,0.074004,-0.994015,-0.277613,0.088334,-0.005390,33.531792,17.394566,-18.349142,,,,,,,
1508183864.403377,0.082088,-0.071728,-2.921172,0.113182,0.051915,0.215860,0.081785,0.071666,-0.994070,-0.290845,0.120854,0.011679,33.681259,17.136448,-18.318241,,,,,,,
1508183864.423387,0.084112,-0.069927,-2.919598,0.056701,0.122622,0.021876,0.083807,0.069870,-0.994029,-0.250571,0.097870,0.053554,33.783077,16.954374,-18.300156,,,,,,,
1508183864.443397,0.087466,-0.069878,-2.920317,-0.020783,0.190963,-0.051565,0.087141,0.069821,-0.993746,-0.206725,0.082309,0.064440,33.833153,16.956898,-18.205059,,,,,,,
1508183864.463402,0.090109,-0.070795,-2.921316,-0.050455,0.088716,-0.055392,0.089761,0.070736,-0.993448,-0.179910,0.071034,0.053629,33.857979,16.979156,-18.138041,,,,,,,
1508183864.483408,0.090928,-0.072045,-2.922471,-0.070645,0.030153,-0.065190,0.090567,0.071983,-0.993285,-0.125357,0.035073,0.051147,33.874672,17.064707,-18.026237,,,,,,,
1508183864.503415,0.091035,-0.074259,-2.923425,-0.127216,-0.009263,-0.057112,0.090659,0.074191,-0.993115,-0.062522,0.015119,0.024609,33.861084,17.138002,-17.982178,,,,,,,
1508183864.523421,0.090903,-0.077584,-2.924197,-0.172133,-0.005014,-0.045411,0.090505,0.077506,-0.992875,-0.047033,0.003411,0.016878,33.849621,17.182035,-17.961731,,,,,,,
1508183864.543426,0.090412,-0.080200,-2.925101,-0.083340,-0.035859,-0.080218,0.089998,0.080114,-0.992715,-0.081133,0.039790,-0.047538,33.818672,17.315969,-17.891273,,,,,,,
1508183864.563417,0.088930,-0.081217,-2.928344,-0.027041,-0.045187,-0.216612,0.088520,0.081128,-0.992765,-0.106830,0.024890,-0.045153,33.751999,17.422762,-17.913481,,,,,,,
1508183864.583440,0.089122,-0.082676,-2.933320,-0.061751,0.061439,-0.263983,0.088700,0.082582,-0.992629,-0.118608,0.024138,-0.045411,33.687206,17.551956,-17.909323,,,,,,,
1508183864.603446,0.089884,-0.083853,-2.938547,-0.006027,0.042236,-0.256282,0.089448,0.083754,-0.992464,-0.124696,0.041719,-0.066328,33.597301,17.797600,-17.835629,,,,,,,
1508183864.623452,0.088691,-0.083093,-2.943086,0.100489,-0.091059,-0.198981,0.088269,0.082998,-0.992633,-0.194516,0.061747,-0.057065,33.510231,17.944948,-17.851788,,,,,,,
1508183864.643459,0.084903,-0.080323,-2.947530,0.176697,-0.207122,-0.232543,0.084527,0.080237,-0.993185,-0.224008,0.075342,-0.046579,33.423252,18.009354,-17.949713,,,,,,,
1508183864.663465,0.079897,-0.077256,-2.953154,0.171313,-0.245378,-0.277835,0.079574,0.077179,-0.993837,-0.291106,0.040481,-0.020598,33.305218,18.077948,-18.099539,,,,,,,
1508183864.683471,0.073771,-0.074652,-2.960031,0.136775,-0.265390,-0.387348,0.073499,0.074583,-0.994503,-0.326260,0.051805,0.000652,33.062481,18.233419,-18.386341,,,,,,,
1508183864.703478,0.069095,-0.073309,-2.969911,0.085649,-0.162789,-0.550876,0.068854,0.073243,-0.994934,-0.346976,0.042892,0.006073,32.883190,18.386911,-18.554258,,,,,,,
1508183864.723483,0.066141,-0.073125,-2.982583,0.029455,-0.080562,-0.645860,0.065916,0.073059,-0.995147,-0.282987,0.040954,0.012511,32.622429,18.699867,-18.701206,,,,,,,
1508183864.743491,0.061365,-0.073731,-2.995131,0.000150,-0.264909,-0.611176,0.061160,0.073665,-0.995406,-0.223254,0.053502,-0.004655,32.267792,19.202309,-18.807014,,,,,,,
1508183864.763485,0.052784,-0.073781,-3.006774,0.058653,-0.447190,-0.555261,0.052616,0.073714,-0.995890,-0.203907,0.051744,-0.011525,32.014709,19.496096,-18.936831,,,,,,,
1508183864.783479,0.041989,-0.072028,-3.017405,0.132838,-0.523982,-0.516883,0.041868,0.071966,-0.996528,-0.184171,0.045298,0.014930,31.429033,19.978365,-19.409374,,,,,,,
1508183864.803509,0.029501,-0.070004,-3.028654,0.091109,-0.620734,-0.603951,0.029424,0.069947,-0.997117,-0.106160,0.029845,0.042512,31.110445,20.184998,-19.706572,,,,,,,
1508183864.823498,0.016533,-0.069960,-3.043229,-0.023055,-0.569213,-0.784818,0.016492,0.069903,-0.997417,-0.069928,0.039670,0.037380,30.741915,20.440588,-20.018991,,,,,,,
1508183864.843521,0.005774,-0.071758,-3.059053,-0.108928,-0.464823,-0.772405,0.005759,0.071696,-0.997410,0.017053,-0.002162,0.023197,29.932182,21.164169,-20.488667,,,,,,,
1508183864.863527,-0.006508,-0.074163,-3.073381,-0.112469,-0.607759,-0.674363,-0.006490,0.074095,-0.997230,0.134740,0.015504,-0.008843,29.398825,21.651979,-20.749554,,,,,,,
1508183864.883534,-0.022083,-0.076039,-3.087006,-0.102384,-0.798372,-0.707860,-0.022017,0.075966,-0.996867,0.185622,0.029763,-0.027318,29.123278,21.870216,-20.908640,,,,,,,
1508183864.903540,-0.038332,-0.078499,-3.102779,-0.168258,-0.708669,-0.811477,-0.038205,0.078419,-0.996188,0.267545,0.000637,-0.050641,28.154030,22.572586,-21.481897,,,,,,,
1508183864.923546,-0.051930,-0.081381,-3.119999,-0.184938,-0.551973,-0.862786,-0.051735,0.081291,-0.995347,0.334556,0.011772,-0.054961,27.489908,23.116106,-21.762207,,,,,,,
1508183864.943552,-0.063868,-0.084642,-3.136051,-0.221978,-0.525634,-0.711726,-0.063596,0.084541,-0.994388,0.408140,-0.050651,-0.075131,27.017899,23.524555,-21.915096,,,,,,,
1508183864.963559,-0.074503,-0.087021,3.135603,-0.098470,-0.449386,-0.502863,-0.074152,0.086911,-0.993453,0.363291,0.013522,-0.084978,26.352842,24.064844,-22.137159,,,,,,,
1508183864.983550,-0.082732,-0.086170,3.125209,0.041099,-0.292741,-0.547891,-0.082331,0.086064,-0.992882,0.428553,0.002727,-0.050895,25.926388,24.345304,-22.333193,,,,,,,
1508183865.003572,-0.088450,-0.084740,3.115048,-0.001574,-0.233265,-0.453821,-0.088018,0.084639,-0.992517,0.435018,-0.017897,-0.041816,25.637150,24.541548,-22.451994,,,,,,,
1508183865.023577,-0.093703,-0.084996,3.108250,-0.048053,-0.231498,-0.266143,-0.093228,0.084894,-0.992019,0.377194,0.006186,-0.048722,25.390686,24.715729,-22.540823,,,,,,,
1508183865.043584,-0.096946,-0.084010,3.104236,0.089777,-0.076164,-0.188526,-0.096452,0.083911,-0.991794,0.268373,0.066373,0.008274,25.060453,24.926136,-22.678282,,,,,,,
1508183865.063591,-0.096277,-0.080471,3.100569,0.180202,0.102774,-0.189057,-0.095818,0.080384,-0.992148,0.269264,0.025955,0.027167,24.979494,24.957434,-22.733112,,,,,,,
1508183865.083595,-0.095058,-0.077109,3.098650,0.124063,0.046080,-0.063435,-0.094632,0.077033,-0.992527,0.260038,-0.031119,0.044423,24.929371,24.956656,-22.788918,,,,,,,
1508183865.103603,-0.094324,-0.075435,3.098657,0.072946,0.045941,0.012313,-0.093916,0.075363,-0.992724,0.116789,0.006408,0.056490,24.932888,24.926012,-22.818588,,,,,,,
1508183865.123609,-0.092134,-0.073863,3.098975,0.087605,0.142896,0.001299,-0.091753,0.073796,-0.993044,0.099214,0.010860,0.057970,24.961864,24.895950,-22.819727,,,,,,,
1508183865.143612,-0.088660,-0.072570,3.099003,0.044654,0.184467,-0.006736,-0.088310,0.072506,-0.993451,0.090584,-0.021618,0.057431,25.050035,24.852604,-22.770308,,,,,,,
1508183865.163603,-0.084898,-0.072437,3.098498,-0.018621,0.201582,-0.034660,-0.084574,0.072374,-0.993785,0.085764,-0.013917,0.047481,25.125120,24.852783,-22.687235,,,,,,,
1508183865.183619,-0.081126,-0.073051,3.097983,-0.035652,0.187708,-0.019518,-0.080821,0.072986,-0.994053,0.109431,-0.011829,0.020054,25.180910,24.872784,-22.603304,,,,,,,
1508183865.203629,-0.077127,-0.073962,3.097670,-0.052800,0.216438,-0.001795,-0.076840,0.073895,-0.994301,0.138119,0.006458,0.006249,25.278713,24.906521,-22.456511,,,,,,,
1508183865.223641,-0.072987,-0.074722,3.097691,-0.026000,0.204705,0.002620,-0.072719,0.074652,-0.994555,0.180980,0.021203,-0.005689,25.374102,24.925016,-22.328045,,,,,,,
1508183865.243630,-0.068165,-0.074906,3.098155,-0.008918,0.267460,0.047549,-0.067921,0.074836,-0.994880,0.198659,0.007867,-0.011971,25.421999,24.928198,-22.269932,,,,,,,
1508183865.263652,-0.061990,-0.075450,3.100352,-0.016224,0.313070,0.146059,-0.061775,0.075378,-0.995240,0.275626,0.027252,-0.024826,25.650948,24.887787,-22.051529,,,,,,,
1508183865.283659,-0.054610,-0.075218,3.104242,0.043750,0.377885,0.220781,-0.054428,0.075147,-0.995686,0.285599,0.057116,-0.001506,25.886091,24.794523,-21.881151,,,,,,,
1508183865.303665,-0.046773,-0.074410,3.109599,0.046174,0.362824,0.294572,-0.046627,0.074341,-0.996142,0.297374,0.051971,0.008990,26.025328,24.724594,-21.794947,,,,,,,
1508183865.323671,-0.039095,-0.074565,3.117358,-0.019650,0.355095,0.449331,-0.038976,0.074496,-0.996459,0.336935,0.016416,0.052993,26.325922,24.552954,-21.627327,,,,,,,
1508183865.343657,-0.031880,-0.076297,3.128278,-0.091649,0.270642,0.608422,-0.031782,0.076223,-0.996584,0.303282,-0.013326,0.031237,26.889738,24.199045,-21.330521,,,,,,,
1508183865.363684,-0.027694,-0.078270,-3.141048,-0.061902,0.106360,0.722744,-0.027606,0.078190,-0.996556,0.262530,-0.001271,0.016499,27.193861,23.964458,-21.209467,,,,,,,
1508183865.383690,-0.024061,-0.079854,-3.126857,-0.069738,0.191638,0.693789,-0.023982,0.079769,-0.996525,0.189754,-0.027370,0.028446,27.485563,23.689598,-21.142132,,,,,,,
1508183865.403696,-0.015267,-0.082488,-3.113983,-0.157600,0.498620,0.607298,-0.015214,0.082394,-0.996484,0.188066,-0.025647,-0.011695,28.117857,23.175442,-20.878887,,,,,,,
1508183865.423703,-0.003638,-0.086732,-3.101535,-0.234548,0.524099,0.660301,-0.003624,0.086623,-0.996235,0.184898,-0.040954,-0.032940,28.488054,22.974350,-20.597403,,,,,,,
1508183865.443708,0.006128,-0.091569,-3.086380,-0.247472,0.342735,0.799428,0.006102,0.091441,-0.995792,0.148836,-0.006572,-0.060467,29.131372,22.589207,-20.118004,,,,,,,
1508183865.463715,0.011690,-0.095841,-3.070797,-0.199954,0.105340,0.717531,0.011636,0.095695,-0.995343,0.117453,0.045983,-0.084522,29.593025,22.215670,-19.858496,,,,,,,
1508183865.483721,0.013647,-0.099656,-3.058329,-0.219464,0.062966,0.601933,0.013579,0.099491,-0.994946,0.055039,0.002346,-0.064197,29.829317,21.975969,-19.771482,,,,,,,
1508183865.503728,0.017995,-0.103031,-3.043813,-0.123943,0.180793,0.797418,0.017899,0.102849,-0.994536,-0.098999,0.002238,-0.124666,30.233938,21.584579,-19.587189,,,,,,,
1508183865.523723,0.023247,-0.102921,-3.027468,0.030064,0.175488,0.767523,0.023122,0.102740,-0.994439,-0.140263,0.037809,-0.092581,30.654404,21.104519,-19.456358,,,,,,,
1508183865.543726,0.028085,-0.102759,-3.014570,-0.059320,0.157784,0.575913,0.027933,0.102578,-0.994333,-0.129602,0.017096,-0.069602,30.844358,20.870989,-19.407997,,,,,,,
1508183865.563722,0.031017,-0.105375,-3.004641,-0.195352,0.077090,0.460958,0.030840,0.105180,-0.993975,-0.124956,0.046859,-0.011106,31.269716,20.394003,-19.233627,,,,,,,
1508183865.583753,0.034940,-0.108686,-2.994035,-0.125668,0.165247,0.581186,0.034726,0.108472,-0.993493,-0.199598,0.077624,-0.013175,31.513992,20.162197,-19.078709,,,,,,,
1508183865.603743,0.037242,-0.107996,-2.980959,0.097753,-0.039484,0.656496,0.037016,0.107786,-0.993485,-0.204711,0.098070,-0.013122,31.663698,19.990414,-19.011486,,,,,,,
1508183865.623748,0.036045,-0.104161,-2.967583,0.170978,-0.159939,0.689111,0.035842,0.103972,-0.993934,-0.225585,0.063935,0.008735,32.023796,19.298864,-19.122587,,,,,,,
1508183865.643771,0.034961,-0.100736,-2.954088,0.128910,-0.090607,0.648683,0.034777,0.100566,-0.994322,-0.288759,0.095082,0.021880,32.231537,18.796837,-19.273035,,,,,,,
1508183865.663761,0.035480,-0.098890,-2.943399,0.047830,-0.025219,0.453729,0.035299,0.098729,-0.994488,-0.306387,0.105433,0.038296,32.335163,18.571133,-19.318209,,,,,,,
1508183865.683782,0.035360,-0.098772,-2.936630,-0.040449,-0.017425,0.295870,0.035180,0.098612,-0.994504,-0.261437,0.060583,0.053174,32.553020,18.132580,-19.368877,,,,,,,
1508183865.703764,0.035257,-0.099296,-2.930804,-0.024411,-0.038687,0.272707,0.035076,0.099133,-0.994456,-0.294262,0.076709,0.022715,32.648235,17.956184,-19.372948,,,,,,,
1508183865.723796,0.036297,-0.099361,-2.927160,-0.006050,0.097965,0.119297,0.036110,0.099198,-0.994412,-0.285470,0.083816,0.029019,32.707489,17.843798,-19.376842,,,,,,,
1508183865.743802,0.039396,-0.099402,-2.925969,-0.005401,0.145009,0.032244,0.039191,0.099238,-0.994292,-0.228171,0.072576,0.030089,32.767666,17.785147,-19.329035,,,,,,,
1508183865.763810,0.040902,-0.099775,-2.926196,-0.030996,0.048202,-0.029245,0.040687,0.099610,-0.994194,-0.129981,0.013732,0.032814,32.848381,17.769333,-19.206186,,,,,,,
1508183865.783809,0.042187,-0.100908,-2.925797,-0.070357,0.059765,0.052722,0.041960,0.100736,-0.994028,-0.118360,0.011629,0.018503,32.860161,17.788780,-19.167990,,,,,,,
1508183865.803804,0.041804,-0.101498,-2.925616,0.001363,-0.056168,-0.044816,0.041577,0.101324,-0.993984,-0.096859,0.060313,-0.004841,32.887989,17.784563,-19.124128,,,,,,,
1508183865.823829,0.041651,-0.101153,-2.927844,0.016765,0.061190,-0.138232,0.041426,0.100980,-0.994026,-0.119566,0.023730,0.029319,32.853180,17.818668,-19.152191,,,,,,,
1508183865.843808,0.042719,-0.102066,-2.931351,-0.077588,0.056013,-0.200998,0.042484,0.101889,-0.993888,-0.035739,-0.001028,0.011985,32.832024,17.882948,-19.128548,,,,,,,
1508183865.863832,0.043561,-0.104569,-2.935242,-0.118218,0.060257,-0.187167,0.043309,0.104379,-0.993594,-0.039876,-0.015344,-0.017880,32.788448,18.032032,-19.063223,,,,,,,
1508183865.883848,0.043720,-0.105901,-2.938955,-0.023961,0.026151,-0.189942,0.043462,0.105703,-0.993447,-0.072453,0.024378,-0.039634,32.726276,18.239174,-18.972778,,,,,,,
1508183865.903835,0.044573,-0.105178,-2.943421,0.089097,0.077388,-0.256880,0.044312,0.104984,-0.993486,-0.087860,0.077770,-0.047957,32.670128,18.369282,-18.944004,,,,,,,
1508183865.923852,0.045079,-0.103390,-2.948985,0.090302,0.035836,-0.253080,0.044823,0.103206,-0.993650,-0.097542,0.027989,-0.038592,32.579689,18.540615,-18.932838,,,,,,,
1508183865.943866,0.045015,-0.101925,-2.953149,0.085299,0.000534,-0.177923,0.044767,0.101748,-0.993802,-0.124677,0.038999,-0.044207,32.507202,18.653627,-18.946424,,,,,,,
1508183865.963869,0.045018,-0.099825,-2.956170,0.144231,0.039813,-0.117758,0.044779,0.099659,-0.994013,-0.181498,0.054790,-0.026876,32.460056,18.709450,-18.972195,,,,,,,
1508183865.983875,0.045040,-0.095797,-2.957857,0.237704,-0.041253,-0.075066,0.044819,0.095650,-0.994406,-0.220890,0.109901,-0.020853,32.428596,18.707516,-19.027817,,,,,,,
1508183866.003885,0.042502,-0.090292,-2.962079,0.289660,-0.106897,-0.282082,0.042316,0.090169,-0.995027,-0.249928,0.105617,0.006563,32.372448,18.689625,-19.140682,,,,,,,
1508183866.023865,0.040132,-0.085834,-2.969558,0.205768,-0.101297,-0.408990,0.039974,0.085729,-0.995516,-0.276119,0.067698,0.024584,32.264034,18.741894,-19.272171,,,,,,,
1508183866.043896,0.036973,-0.083217,-2.979958,0.117471,-0.093492,-0.572181,0.036837,0.083121,-0.995858,-0.304277,0.049997,0.046823,31.957706,19.048044,-19.481277,,,,,,,
1508183866.063794,0.036008,-0.081698,-2.992543,0.095410,0.053654,-0.641476,0.035880,0.081608,-0.996018,-0.290015,0.054638,0.052980,31.770449,19.302515,-19.537006,,,,,,,
1508183866.083818,0.036139,-0.080481,-3.005495,0.092262,0.022781,-0.650622,0.036014,0.080394,-0.996112,-0.191333,0.088353,0.033741,31.599260,19.578569,-19.539942,,,,,,,
1508183866.103805,0.032995,-0.077874,-3.018498,0.177538,-0.194609,-0.619810,0.032889,0.077795,-0.996427,-0.168494,0.043176,0.014814,31.207035,20.121868,-19.618212,,,,,,,
1508183866.123838,0.026045,-0.074382,-3.029558,0.211617,-0.390822,-0.518890,0.025970,0.074313,-0.996897,-0.176116,0.046857,-0.010046,30.960056,20.342426,-19.781395,,,,,,,
1508183866.143819,0.017027,-0.069776,-3.041978,0.240832,-0.328699,-0.692554,0.016984,0.069720,-0.997422,-0.157167,0.077085,0.054612,30.682739,20.523521,-20.024923,,,,,,,
1508183866.163826,0.012154,-0.066331,-3.056390,0.128105,-0.178517,-0.670122,0.012127,0.066283,-0.997727,0.016438,-0.053572,0.043336,30.075733,21.011509,-20.435505,,,,,,,
1508183866.183855,0.005542,-0.066359,-3.066757,-0.055652,-0.376020,-0.429335,0.005530,0.066310,-0.997784,0.060983,-0.058818,0.026394,29.814966,21.262386,-20.557762,,,,,,,
1508183866.203860,-0.003392,-0.068066,-3.073346,-0.095675,-0.434885,-0.285567,-0.003384,0.068014,-0.997679,0.103146,0.014918,0.022352,29.561508,21.470209,-20.707256,,,,,,,
1508183866.223861,-0.014243,-0.070874,-3.078303,-0.196614,-0.604365,-0.219055,-0.014207,0.070814,-0.997388,0.231919,-0.067640,-0.052050,29.249891,21.685658,-20.924128,,,,,,,
1508183866.243875,-0.029793,-0.076160,-3.082582,-0.292407,-0.798176,-0.237499,-0.029703,0.076087,-0.996659,0.227396,-0.034156,-0.081421,28.804049,21.948090,-21.266199,,,,,,,
1508183866.263865,-0.042249,-0.081391,-3.090575,-0.239736,-0.416359,-0.476595,-0.042097,0.081302,-0.995800,0.182005,0.032773,-0.070194,28.472454,22.146160,-21.506046,,,,,,,
1508183866.283873,-0.048703,-0.083253,-3.101816,-0.033893,-0.301157,-0.580786,-0.048516,0.083156,-0.995355,0.312798,-0.032543,-0.074958,27.884861,22.689512,-21.708607,,,,,,,
1508183866.303893,-0.057292,-0.082314,-3.113479,0.007035,-0.388521,-0.578483,-0.057067,0.082222,-0.994979,0.290725,-0.072532,-0.054460,27.461479,23.009876,-21.910173,,,,,,,
1508183866.323892,-0.064067,-0.082944,-3.124833,-0.113421,-0.169062,-0.565594,-0.063803,0.082849,-0.994518,0.290243,-0.034754,-0.005330,27.244406,23.169003,-22.013233,,,,,,,
1508183866.343880,-0.066504,-0.085049,-3.137464,-0.129994,-0.084736,-0.649976,-0.066215,0.084946,-0.994183,0.405189,0.033325,-0.058017,26.724566,23.719387,-22.064257,,,,,,,
1508183866.363912,-0.071227,-0.085861,3.132926,-0.067241,-0.236164,-0.575319,-0.070905,0.085756,-0.993790,0.381055,-0.017595,-0.053802,26.447897,24.017599,-22.075024,,,,,,,
1508183866.383913,-0.077976,-0.085587,3.124757,0.024762,-0.319769,-0.327860,-0.077612,0.085482,-0.993312,0.268606,0.012342,-0.054280,26.163303,24.264441,-22.144108,,,,,,,
1508183866.403908,-0.082160,-0.083026,3.118094,0.129726,-0.055499,-0.387219,-0.081785,0.082931,-0.993194,0.273801,0.026063,0.017867,25.727545,24.507915,-22.385229,,,,,,,
1508183866.423931,-0.081102,-0.080116,3.110225,0.091873,0.115947,-0.354489,-0.080754,0.080030,-0.993516,0.303105,-0.022260,0.017137,25.581976,24.623692,-22.424969,,,,,,,
1508183866.443911,-0.081302,-0.078806,3.106903,0.040946,-0.081676,-0.070081,-0.080961,0.078724,-0.993603,0.307538,-0.049885,0.004208,25.488672,24.726343,-22.418262,,,,,,,
1508183866.463936,-0.083482,-0.077539,3.106845,0.075411,-0.075442,0.004444,-0.083134,0.077461,-0.993523,0.181752,0.016579,0.043648,25.385818,24.747000,-22.511978,,,,,,,
1508183866.483937,-0.083618,-0.075859,3.106524,0.082399,0.037574,-0.047316,-0.083281,0.075786,-0.993640,0.198073,0.018346,0.052860,25.369131,24.721386,-22.558886,,,,,,,
1508183866.503939,-0.081027,-0.074800,3.106427,0.029906,0.153524,0.039544,-0.080712,0.074731,-0.993932,0.183953,-0.023492,0.039113,25.367809,24.710224,-22.572594,,,,,,,
1508183866.523934,-0.078433,-0.074385,3.108698,0.042141,0.103260,0.137298,-0.078136,0.074316,-0.994169,0.158230,0.021936,0.014478,25.498968,24.645691,-22.495234,,,,,,,
1508183866.543969,-0.075395,-0.073487,3.111546,0.056934,0.166107,0.136375,-0.075120,0.073421,-0.994468,0.139665,0.026174,0.018867,25.589407,24.575481,-22.469334,,,,,,,
1508183866.563978,-0.071384,-0.073043,3.114391,0.012987,0.201252,0.145495,-0.071133,0.072978,-0.994794,0.173642,0.022405,0.032559,25.694836,24.505074,-22.425871,,,,,,,
1508183866.583962,-0.067521,-0.073487,3.117544,-0.020051,0.183102,0.170308,-0.067288,0.073421,-0.995028,0.194684,0.027043,0.016589,25.929764,24.384014,-22.286993,,,,,,,
1508183866.603988,-0.063025,-0.073982,3.121710,0.003595,0.212804,0.229572,-0.062811,0.073915,-0.995285,0.208639,0.036833,0.003112,26.063488,24.318008,-22.202972,,,,,,,
1508183866.623995,-0.057553,-0.073695,3.126548,0.033365,0.304359,0.253813,-0.057365,0.073628,-0.995635,0.243613,0.044414,0.024397,26.217308,24.227652,-22.120499,,,,,,,
1508183866.643990,-0.051158,-0.073281,3.132395,0.036829,0.268049,0.299122,-0.050998,0.073215,-0.996011,0.326908,0.023083,0.032358,26.599762,23.995274,-21.916260,,,,,,,
1508183866.664007,-0.046049,-0.073293,3.137792,-0.018908,0.252172,0.255676,-0.045909,0.073228,-0.996258,0.343837,-0.021332,0.062725,26.838308,23.834269,-21.800823,,,,,,,
1508183866.683996,-0.038464,-0.075449,-3.138708,-0.137657,0.418059,0.415437,-0.038345,0.075377,-0.996418,0.351059,-0.013961,0.064502,26.960350,23.770365,-21.719856,,,,,,,
1508183866.704010,-0.030451,-0.078651,-3.126384,-0.107199,0.257593,0.752560,-0.030352,0.078570,-0.996446,0.369662,0.008542,-0.031264,27.536880,23.471830,-21.317513,,,,,,,
1508183866.724026,-0.028417,-0.079367,-3.108034,0.059396,-0.107207,0.977383,-0.028323,0.079284,-0.996450,0.231174,0.008775,-0.031779,27.987532,23.016314,-21.227110,,,,,,,
1508183866.744021,-0.029998,-0.078214,-3.089031,0.061292,-0.101741,0.906927,-0.029902,0.078134,-0.996494,0.162989,-0.040735,-0.009777,28.271471,22.579542,-21.319736,,,,,,,
1508183866.764016,-0.027096,-0.080061,-3.071684,-0.151648,0.180743,0.834747,-0.027006,0.079975,-0.996431,0.127439,-0.043507,0.014970,28.754337,21.938307,-21.343426,,,,,,,
1508183866.784044,-0.019416,-0.086778,-3.056779,-0.409292,0.338686,0.722820,-0.019342,0.086669,-0.996049,0.122522,-0.063063,-0.028471,29.212893,21.594997,-21.069077,,,,,,,
1508183866.804049,-0.012799,-0.096331,-3.041038,-0.434214,0.205312,0.835669,-0.012739,0.096182,-0.995282,0.095289,-0.007361,-0.079730,29.550833,21.407782,-20.786968,,,,,,,
1508183866.824044,-0.008434,-0.101607,-3.023244,-0.148004,0.129437,0.921858,-0.008391,0.101432,-0.994807,0.019606,0.070687,-0.106954,30.090527,20.953615,-20.473133,,,,,,,
1508183866.844064,-0.004778,-0.102968,-3.004566,-0.046123,0.062285,0.930220,-0.004753,0.102786,-0.994692,0.013786,0.033414,-0.098081,30.516905,20.427261,-20.373718,,,,,,,
1508183866.864046,-0.004448,-0.104603,-2.985254,-0.094489,-0.193421,0.961688,-0.004424,0.104412,-0.994524,-0.048249,-0.003506,-0.094450,30.807821,20.009613,-20.350348,,,,,,,
1508183866.884072,-0.006059,-0.106207,-2.967577,-0.040791,-0.051478,0.820970,-0.006025,0.106008,-0.994347,-0.280093,0.063533,-0.023674,31.166136,19.337297,-20.454430,,,,,,,
1508183866.904058,-0.001144,-0.105976,-2.953048,0.034841,0.229019,0.640906,-0.001138,0.105778,-0.994389,-0.225226,0.060420,-0.006999,31.411745,18.972004,-20.420778,,,,,,,
1508183866.924075,0.004435,-0.105875,-2.943412,-0.046119,0.215651,0.410839,0.004410,0.105677,-0.994391,-0.213273,0.028143,-0.000574,31.730150,18.579609,-20.288881,,,,,,,
1508183866.944069,0.009801,-0.108857,-2.935344,-0.173623,0.267887,0.406979,0.009743,0.108642,-0.994033,-0.342262,0.099885,-0.007828,32.027222,18.301292,-20.073931,,,,,,,
1508183866.964100,0.018117,-0.110756,-2.928727,-0.051550,0.419450,0.241545,0.018005,0.110529,-0.993710,-0.294723,0.132009,-0.010456,32.230251,18.157520,-19.878588,,,,,,,
1508183866.984103,0.027784,-0.111237,-2.925766,-0.028550,0.486765,0.136054,0.027609,0.111008,-0.993436,-0.240347,0.113159,0.002454,32.478638,18.034966,-19.583694,,,,,,,
1508183867.004097,0.034562,-0.110946,-2.921203,0.039194,0.175403,0.284469,0.034343,0.110718,-0.993258,-0.198650,0.151794,-0.022290,32.757137,17.896486,-19.243927,,,,,,,
1508183867.024120,0.035883,-0.108419,-2.915900,0.160490,0.001823,0.243177,0.035665,0.108207,-0.993488,-0.248067,0.121346,0.038502,32.887032,17.680561,-19.221964,,,,,,,
1508183867.044100,0.037516,-0.104864,-2.911522,0.160100,0.089253,0.202456,0.037301,0.104672,-0.993807,-0.241723,0.098346,0.063967,32.931313,17.569588,-19.247883,,,,,,,
1508183867.064125,0.039411,-0.102930,-2.908955,0.036786,0.072429,0.107892,0.039192,0.102749,-0.993935,-0.140633,-0.004085,0.063149,33.070236,17.311441,-19.243614,,,,,,,
1508183867.084138,0.040717,-0.103525,-2.906151,-0.050701,0.036140,0.154335,0.040487,0.103340,-0.993822,-0.146338,0.038124,0.029832,33.136978,17.232798,-19.199331,,,,,,,
1508183867.104129,0.041237,-0.103778,-2.903015,0.009320,-0.003277,0.148464,0.041003,0.103592,-0.993774,-0.154330,0.049728,0.024399,33.170040,17.189915,-19.180672,,,,,,,
1508183867.124139,0.041273,-0.102844,-2.900799,0.044434,-0.015924,0.076112,0.041044,0.102663,-0.993869,-0.116300,0.026106,0.026798,33.240425,17.042612,-19.190269,,,,,,,
1508183867.144157,0.040682,-0.102657,-2.901584,-0.012914,-0.007012,-0.111643,0.040457,0.102477,-0.993912,-0.101812,0.011690,0.027711,33.232594,17.027372,-19.217342,,,,,,,
1508183867.164156,0.041358,-0.104038,-2.905015,-0.087266,0.079452,-0.192814,0.041122,0.103850,-0.993742,-0.086838,-0.016204,0.012084,33.201462,17.108248,-19.199322,,,,,,,
1508183867.184164,0.043269,-0.105845,-2.908804,-0.069223,0.139083,-0.184095,0.043014,0.105647,-0.993473,-0.074477,0.019658,-0.021435,33.163311,17.307800,-19.086067,,,,,,,
1508183867.204177,0.045569,-0.106873,-2.912347,-0.022037,0.111362,-0.177331,0.045293,0.106669,-0.993262,-0.070623,0.034078,-0.037042,33.154324,17.448191,-18.973520,,,,,,,
1508183867.224176,0.046199,-0.106300,-2.915682,0.075717,0.004775,-0.157731,0.045922,0.106100,-0.993295,-0.082040,0.055476,-0.054679,33.134373,17.534100,-18.929125,,,,,,,
1508183867.244177,0.045320,-0.103961,-2.919291,0.142090,-0.030348,-0.180730,0.045060,0.103774,-0.993580,-0.157654,0.042054,-0.031399,33.058537,17.626078,-18.976236,,,,,,,
1508183867.264194,0.044346,-0.101409,-2.923454,0.133323,-0.012143,-0.227905,0.044103,0.101236,-0.993884,-0.184850,0.054175,-0.016019,32.979523,17.698277,-19.046394,,,,,,,
