timestamp(unix),attitude_roll(radians),attitude_pitch(radians),attitude_yaw(radians),rotation_rate_x(radians/s),rotation_rate_y(radians/s),rotation_rate_z(radians/s),gravity_x(G),gravity_y(G),gravity_z(G),user_acc_x(G),user_acc_y(G),user_acc_z(G),magnetic_field_x(microteslas),magnetic_field_y(microteslas),magnetic_field_z(microteslas),latitude(degree),longitude(degree),altitude(meter),speed(m/s),course(degree),timestamp(unix),User Mark
1508183985.348765,0.011357,-0.036922,-3.119957,0.005988,0.009338,-0.025216,0.011349,0.036914,-0.999254,0.012257,0.002194,-0.001005,12.829268,27.407658,-46.549778,,,,,,,
1508183985.368767,0.011592,-0.036649,-3.120232,0.024321,-0.015213,-0.003541,0.011584,0.036641,-0.999261,0.015851,0.006511,0.003458,12.828699,27.403128,-46.552601,,,,,,,
1508183985.388788,0.011569,-0.036254,-3.120006,0.032930,-0.010991,0.015585,0.011561,0.036246,-0.999276,0.011953,0.009683,0.004662,12.849946,27.388483,-46.555359,,,,,,,
1508183985.408796,0.011684,-0.036036,-3.119758,0.006119,0.001812,0.009022,0.011676,0.036029,-0.999283,0.006115,-0.003009,0.009247,12.858477,27.372473,-46.562424,,,,,,,
1508183985.428787,0.012129,-0.036047,-3.119565,-0.000285,-0.000321,0.012257,0.012121,0.036039,-0.999277,0.010493,0.001070,0.004007,12.875640,27.363289,-46.563076,,,,,,,
1508183985.448809,0.012161,-0.036010,-3.119244,0.007233,-0.002466,0.018680,0.012153,0.036002,-0.999278,0.006035,0.001885,0.004191,12.887442,27.362022,-46.560555,,,,,,,
1508183985.468791,0.012314,-0.035875,-3.118895,0.011438,0.017781,0.014118,0.012306,0.035867,-0.999281,-0.002113,0.003363,0.003706,12.901268,27.355522,-46.560547,,,,,,,
1508183985.488816,0.012754,-0.035638,-3.118514,0.011520,-0.001407,0.021860,0.012746,0.035630,-0.999284,0.005748,-0.003480,0.005403,12.933121,27.337917,-46.562050,,,,,,,
1508183985.508802,0.012648,-0.035380,-3.118126,0.005083,-0.000332,0.017584,0.012639,0.035373,-0.999294,-0.001028,-0.004230,0.008877,12.945520,27.325539,-46.565868,,,,,,,
1508183985.528819,0.012764,-0.035270,-3.117852,-0.005682,0.017786,0.014131,0.012756,0.035263,-0.999297,-0.005340,-0.008560,0.008681,12.949432,27.306805,-46.575768,,,,,,,
1508183985.548832,0.013069,-0.035252,-3.117584,0.000745,0.014591,0.013106,0.013060,0.035245,-0.999293,-0.000762,0.000567,0.001964,12.977865,27.303270,-46.569927,,,,,,,
1508183985.568850,0.013189,-0.035178,-3.117263,0.008283,-0.001390,0.013332,0.013180,0.035171,-0.999294,-0.000118,0.002854,0.001354,12.991406,27.298512,-46.568939,,,,,,,
1508183985.588834,0.013212,-0.035046,-3.116942,0.001857,0.004994,0.017509,0.013204,0.035039,-0.999299,-0.001882,-0.003240,0.006928,12.997853,27.289124,-46.572643,,,,,,,
1508183985.608842,0.013193,-0.035082,-3.116640,-0.017404,0.001809,0.014371,0.013184,0.035074,-0.999298,-0.007538,-0.002497,0.005981,13.011992,27.283777,-46.571827,,,,,,,
1508183985.628870,0.013040,-0.035507,-3.116399,-0.016367,0.006082,0.007911,0.013032,0.035499,-0.999285,-0.009843,0.001000,0.002886,13.016905,27.291437,-46.565971,,,,,,,
1508183985.648852,0.013134,-0.035678,-3.116363,0.009264,0.015674,0.001354,0.013125,0.035670,-0.999277,-0.007174,0.008367,-0.001455,13.008164,27.310747,-46.557091,,,,,,,
1508183985.668870,0.013227,-0.035463,-3.116270,0.005055,-0.002444,0.006952,0.013219,0.035456,-0.999284,-0.003133,0.002111,0.010362,13.018871,27.299919,-46.560444,,,,,,,
1508183985.688868,0.013188,-0.035567,-3.116215,-0.018545,0.010357,0.000386,0.013179,0.035560,-0.999281,-0.000286,-0.002921,0.005781,13.024610,27.297056,-46.560520,,,,,,,
1508183985.708873,0.013508,-0.035985,-3.116154,-0.029211,0.008212,0.008956,0.013499,0.035977,-0.999261,0.001241,0.000308,0.000497,13.030654,27.306208,-46.553463,,,,,,,
1508183985.728898,0.013053,-0.036332,-3.115832,0.006204,-0.018444,0.016780,0.013044,0.036324,-0.999255,-0.007719,0.000800,0.001345,13.036237,27.333454,-46.535904,,,,,,,
1508183985.748910,0.012696,-0.035984,-3.115647,-0.001374,0.000751,0.006910,0.012687,0.035976,-0.999272,-0.008537,-0.008373,0.005620,13.012737,27.313454,-46.554222,,,,,,,
1508183985.768894,0.012600,-0.036127,-3.115698,-0.024934,-0.009864,-0.008913,0.012592,0.036119,-0.999268,0.003217,-0.002534,-0.000350,13.009513,27.311174,-46.556461,,,,,,,
1508183985.788896,0.012402,-0.036594,-3.115731,-0.014222,-0.003495,0.000583,0.012393,0.036586,-0.999254,-0.004458,0.010549,-0.007216,12.998275,27.338558,-46.543522,,,,,,,
1508183985.808929,0.012469,-0.036345,-3.115876,0.001741,0.012505,-0.012456,0.012461,0.036337,-0.999262,-0.001520,-0.007772,-0.001120,12.997749,27.341434,-46.541985,,,,,,,
1508183985.828937,0.012647,-0.036572,-3.116150,-0.005767,0.013581,-0.016731,0.012638,0.036564,-0.999251,-0.002277,0.006908,0.001128,12.998353,27.334480,-46.545902,,,,,,,
1508183985.848943,0.013126,-0.036692,-3.116608,0.013488,0.008264,-0.023066,0.013117,0.036684,-0.999241,0.008536,0.002287,0.000126,13.000773,27.357603,-46.531635,,,,,,,
1508183985.868951,0.013574,-0.036401,-3.116811,0.000761,-0.007750,-0.002565,0.013565,0.036393,-0.999245,0.008805,-0.001634,0.003167,13.017255,27.348986,-46.532097,,,,,,,
1508183985.888957,0.013304,-0.036441,-3.116745,0.000807,-0.017348,0.002906,0.013295,0.036433,-0.999248,-0.001393,0.000737,0.005092,13.023232,27.347961,-46.531021,,,,,,,
1508183985.908963,0.013293,-0.036579,-3.116819,-0.000397,0.016760,-0.007185,0.013284,0.036570,-0.999243,0.002753,0.005101,0.007345,13.012731,27.348722,-46.533516,,,,,,,
1508183985.928968,0.013714,-0.036633,-3.116986,-0.007891,0.016764,-0.008245,0.013704,0.036624,-0.999235,0.003156,-0.000034,0.006529,13.017058,27.356201,-46.527908,,,,,,,
1508183985.948977,0.013986,-0.037009,-3.117254,-0.027163,0.010397,-0.017735,0.013976,0.037001,-0.999218,-0.004012,-0.003279,0.004497,13.031699,27.366360,-46.517834,,,,,,,
1508183985.968980,0.014137,-0.037521,-3.117518,-0.003600,0.009313,-0.011339,0.014126,0.037512,-0.999196,-0.000210,0.000742,0.005407,13.029989,27.400148,-46.498417,,,,,,,
1508183985.988990,0.014499,-0.037518,-3.117660,-0.001468,0.017824,-0.006133,0.014488,0.037510,-0.999191,0.001701,-0.000843,0.008591,13.036838,27.409443,-46.491020,,,,,,,
1508183986.008995,0.014842,-0.037553,-3.117738,-0.005682,0.002899,0.000484,0.014831,0.037544,-0.999185,0.002412,-0.007347,0.007928,13.056888,27.409861,-46.485146,,,,,,,
1508183986.029004,0.014517,-0.037310,-3.117657,-0.022723,-0.023726,-0.000183,0.014506,0.037301,-0.999199,-0.010661,-0.003229,0.002556,13.053957,27.407234,-46.487522,,,,,,,
1508183986.049010,0.013939,-0.037708,-3.117923,-0.029291,0.007201,-0.017687,0.013929,0.037699,-0.999192,-0.004499,-0.000788,-0.002593,13.046559,27.400141,-46.493778,,,,,,,
1508183986.069018,0.014572,-0.038373,-3.118410,-0.022966,0.030651,-0.025496,0.014561,0.038364,-0.999158,0.004085,0.004559,-0.008090,13.021925,27.444057,-46.474777,,,,,,,
1508183986.088941,0.015347,-0.038679,-3.118664,0.005006,0.001844,-0.004840,0.015335,0.038670,-0.999134,0.009583,-0.001972,-0.006450,13.045782,27.473698,-46.450569,,,,,,,
1508183986.108969,0.015245,-0.038334,-3.118533,-0.002377,-0.017358,0.010373,0.015233,0.038325,-0.999149,0.000575,-0.006022,-0.003109,13.059594,27.465509,-46.451530,,,,,,,
1508183986.128950,0.015032,-0.038682,-3.118313,-0.005613,-0.007772,0.011302,0.015020,0.038673,-0.999139,0.001109,0.008568,-0.013160,13.053310,27.461451,-46.455696,,,,,,,
1508183986.148983,0.015054,-0.038369,-3.118164,0.037165,-0.005641,0.005908,0.015043,0.038359,-0.999151,0.004641,-0.000823,-0.003275,13.053763,27.466053,-46.452847,,,,,,,
1508183986.168989,0.015070,-0.037074,-3.117853,0.035088,-0.010993,0.019849,0.015059,0.037066,-0.999199,0.002016,-0.013140,0.008126,13.064842,27.414656,-46.480087,,,,,,,
1508183986.188997,0.014518,-0.036190,-3.117412,0.014776,-0.015253,0.020992,0.014508,0.036182,-0.999240,-0.009701,-0.010898,0.010333,13.064400,27.367140,-46.508202,,,,,,,
1508183986.209003,0.014129,-0.035879,-3.117283,-0.013213,0.016755,-0.001843,0.014120,0.035871,-0.999257,-0.009359,-0.005369,0.009892,13.044510,27.330429,-46.535366,,,,,,,
1508183986.229010,0.014718,-0.036307,-3.117471,-0.005803,0.031688,-0.012728,0.014708,0.036299,-0.999233,0.002519,0.004030,-0.002675,13.052832,27.344904,-46.524529,,,,,,,
1508183986.249018,0.015360,-0.036127,-3.117646,0.012496,0.003973,-0.004876,0.015349,0.036119,-0.999230,0.009309,-0.001741,-0.001106,13.075586,27.351082,-46.514503,,,,,,,
1508183986.269022,0.015262,-0.035675,-3.117418,0.021196,-0.019506,0.016784,0.015251,0.035668,-0.999247,0.002846,-0.002984,0.002970,13.087438,27.329830,-46.523663,,,,,,,
1508183986.289012,0.014997,-0.035440,-3.117030,0.000824,-0.004590,0.017649,0.014987,0.035432,-0.999260,-0.001803,0.001158,0.005913,13.086128,27.305037,-46.538586,,,,,,,
1508183986.309037,0.015094,-0.035775,-3.116904,-0.013196,0.016746,0.003489,0.015084,0.035767,-0.999246,-0.001076,0.004806,-0.001913,13.086785,27.308836,-46.536171,,,,,,,
1508183986.329042,0.015459,-0.036298,-3.116907,0.009262,0.016747,0.000273,0.015448,0.036290,-0.999222,0.002084,0.013286,-0.005524,13.104198,27.333460,-46.516808,,,,,,,
1508183986.349050,0.015470,-0.035669,-3.116811,0.029707,-0.013100,0.008154,0.015459,0.035661,-0.999244,0.001905,-0.003877,0.005272,13.110030,27.343607,-46.509205,,,,,,,
1508183986.369058,0.015264,-0.035424,-3.116713,0.010344,0.011416,-0.000710,0.015254,0.035416,-0.999256,-0.005351,0.003692,0.003162,13.107146,27.302965,-46.533886,,,,,,,
1508183986.389064,0.015776,-0.035452,-3.116852,0.007045,0.032737,-0.008481,0.015766,0.035445,-0.999247,0.000958,0.003205,0.000025,13.119089,27.301550,-46.531353,,,,,,,
1508183986.409070,0.016266,-0.035485,-3.116966,0.002817,0.022073,-0.001925,0.016255,0.035478,-0.999238,-0.001393,0.005843,0.009248,13.126584,27.303413,-46.528145,,,,,,,
1508183986.429077,0.016449,-0.035314,-3.116929,0.017862,0.005016,0.002576,0.016438,0.035307,-0.999241,-0.000676,-0.001920,0.011998,13.152423,27.307898,-46.518211,,,,,,,
1508183986.449084,0.016384,-0.035023,-3.116880,0.000784,-0.006702,0.004891,0.016374,0.035016,-0.999253,-0.001374,-0.002820,0.005448,13.156425,27.286631,-46.529560,,,,,,,
1508183986.469090,0.016070,-0.035206,-3.116772,0.000773,-0.003507,0.004845,0.016060,0.035198,-0.999251,-0.005394,0.006428,0.003203,13.154322,27.283709,-46.531868,,,,,,,
1508183986.489096,0.016002,-0.035036,-3.116858,0.002821,0.014624,-0.007149,0.015991,0.035029,-0.999258,-0.003281,-0.002818,0.007864,13.135823,27.288317,-46.534393,,,,,,,
1508183986.509095,0.016294,-0.035181,-3.116987,-0.004667,0.012497,-0.008179,0.016283,0.035174,-0.999249,-0.000704,0.001081,0.005352,13.146046,27.289595,-46.530758,,,,,,,
1508183986.529111,0.016223,-0.035291,-3.117137,-0.004622,-0.000291,-0.005861,0.016212,0.035284,-0.999246,-0.002952,-0.000311,0.005868,13.143614,27.297993,-46.526516,,,,,,,
1508183986.549117,0.016259,-0.035334,-3.117274,-0.004654,0.009298,-0.007066,0.016248,0.035327,-0.999244,-0.000898,-0.001238,0.002387,13.136779,27.300991,-46.526691,,,,,,,
1508183986.569124,0.016360,-0.035340,-3.117359,-0.003534,-0.002428,-0.002632,0.016349,0.035332,-0.999242,0.000908,-0.000436,0.003514,13.140839,27.303707,-46.523949,,,,,,,
1508183986.589131,0.016146,-0.035408,-3.117428,-0.001421,0.002903,-0.005910,0.016135,0.035400,-0.999243,-0.004020,-0.001465,0.005835,13.132739,27.308828,-46.523228,,,,,,,
1508183986.609138,0.016365,-0.035442,-3.117616,-0.015357,0.006113,-0.011277,0.016354,0.035435,-0.999238,0.004093,-0.002857,-0.002456,13.129784,27.306816,-46.525246,,,,,,,
1508183986.629144,0.016368,-0.035533,-3.117763,0.002937,-0.021599,-0.004491,0.016357,0.035526,-0.999235,0.005708,0.000500,-0.006060,13.131400,27.318670,-46.517826,,,,,,,
1508183986.649151,0.015981,-0.035301,-3.117687,0.009370,-0.014166,0.006059,0.015970,0.035293,-0.999249,-0.002238,-0.001572,-0.000842,13.119311,27.310678,-46.525932,,,,,,,
1508183986.669158,0.015990,-0.035332,-3.117746,-0.005771,0.022088,-0.010450,0.015979,0.035325,-0.999248,-0.003986,0.000960,0.001247,13.111547,27.305239,-46.531311,,,,,,,
1508183986.689164,0.016602,-0.035644,-3.118043,-0.004722,0.024228,-0.014747,0.016591,0.035637,-0.999227,0.003108,0.006905,-0.001780,13.127781,27.318649,-46.518864,,,,,,,
1508183986.709163,0.016924,-0.035339,-3.118215,0.029631,0.000758,-0.001637,0.016913,0.035332,-0.999233,0.004114,0.002754,-0.003194,13.139592,27.324287,-46.512215,,,,,,,
1508183986.729167,0.016845,-0.034701,-3.118096,0.016848,-0.008843,0.007043,0.016834,0.034694,-0.999256,0.004375,-0.006801,0.004597,13.147297,27.293758,-46.527962,,,,,,,
1508183986.749162,0.016695,-0.034166,-3.118165,0.009285,0.000774,-0.006953,0.016685,0.034160,-0.999277,-0.001609,-0.011592,0.007273,13.138392,27.272457,-46.542965,,,,,,,
1508183986.769191,0.016767,-0.034213,-3.118222,-0.017458,0.005029,-0.000597,0.016756,0.034207,-0.999274,-0.001009,-0.006710,0.010551,13.136278,27.261076,-46.550224,,,,,,,
1508183986.789195,0.016517,-0.034444,-3.118266,-0.004573,-0.012015,-0.002492,0.016506,0.034437,-0.999271,-0.003750,-0.000822,0.003711,13.131731,27.269823,-46.546387,,,,,,,
1508183986.809188,0.016256,-0.034473,-3.118482,0.009254,0.001854,-0.015499,0.016245,0.034466,-0.999274,-0.004298,0.000797,0.008032,13.113515,27.277809,-46.546841,,,,,,,
1508183986.829212,0.016460,-0.034405,-3.118904,0.007063,0.009329,-0.024136,0.016449,0.034398,-0.999273,-0.000184,0.003642,0.006109,13.107447,27.276192,-46.549500,,,,,,,
1508183986.849196,0.016615,-0.034436,-3.119308,-0.016412,-0.003464,-0.015403,0.016604,0.034430,-0.999269,0.007520,-0.003973,0.007280,13.103718,27.280323,-46.548130,,,,,,,
1508183986.869218,0.016499,-0.035147,-3.119447,-0.015342,0.003977,-0.008047,0.016488,0.035140,-0.999246,-0.007135,0.010225,-0.006811,13.101399,27.306931,-46.533176,,,,,,,
1508183986.889232,0.016528,-0.035327,-3.119858,0.006951,0.043419,-0.026764,0.016517,0.035320,-0.999240,-0.012123,0.003178,-0.004178,13.090198,27.331430,-46.521946,,,,,,,
1508183986.909221,0.017433,-0.035306,-3.120510,0.015525,0.030650,-0.034049,0.017421,0.035299,-0.999225,0.005483,0.007533,0.001178,13.097307,27.336578,-46.516918,,,,,,,
1508183986.929246,0.018040,-0.034755,-3.121193,0.023048,0.022122,-0.031798,0.018028,0.034748,-0.999233,0.002403,-0.007282,0.011898,13.117218,27.334549,-46.512501,,,,,,,
1508183986.949252,0.018589,-0.034453,-3.121624,-0.000496,0.035953,-0.020252,0.018577,0.034446,-0.999234,0.000131,-0.009361,0.012524,13.129804,27.314074,-46.520977,,,,,,,
1508183986.969249,0.019110,-0.034422,-3.122539,0.004650,0.062657,-0.059030,0.019097,0.034415,-0.999225,-0.009347,-0.000632,-0.000622,13.131794,27.320499,-46.516644,,,,,,,
1508183986.989265,0.020413,-0.034334,-3.123756,0.007931,0.041348,-0.056591,0.020399,0.034327,-0.999202,0.009920,0.000203,-0.000737,13.152987,27.334097,-46.502663,,,,,,,
1508183987.009271,0.020930,-0.034177,-3.124519,0.008088,0.019986,-0.027491,0.020916,0.034171,-0.999197,0.005497,0.000482,0.008246,13.163088,27.337311,-46.497917,,,,,,,
1508183987.029277,0.021395,-0.034292,-3.125224,-0.013431,0.038132,-0.046925,0.021381,0.034286,-0.999183,-0.005939,0.001298,0.012169,13.168578,27.342112,-46.493542,,,,,,,
1508183987.049285,0.022065,-0.034653,-3.126192,-0.016586,0.024276,-0.042457,0.022049,0.034646,-0.999156,0.002716,0.000983,-0.000142,13.176552,27.372850,-46.473190,,,,,,,
1508183987.069290,0.022558,-0.034768,-3.126870,-0.004813,0.033841,-0.033008,0.022543,0.034761,-0.999141,-0.000830,-0.000460,0.003429,13.180126,27.388191,-46.463135,,,,,,,
1508183987.089274,0.023282,-0.034987,-3.127599,-0.005816,0.012535,-0.031631,0.023266,0.034980,-0.999117,0.007648,0.003106,-0.000532,13.200118,27.405809,-46.447067,,,,,,,
1508183987.109300,0.023393,-0.035001,-3.127725,0.003025,-0.042928,0.004354,0.023376,0.034994,-0.999114,0.008713,0.000910,-0.000077,13.201436,27.415550,-46.440948,,,,,,,
1508183987.129312,0.022890,-0.035086,-3.127564,-0.011023,0.002881,0.003701,0.022874,0.035079,-0.999123,-0.002961,-0.000640,0.001198,13.186712,27.414183,-46.445938,,,,,,,
1508183987.149299,0.023214,-0.035319,-3.127799,-0.003657,0.021031,-0.017894,0.023197,0.035312,-0.999107,-0.004185,0.002911,-0.007836,13.185359,27.426559,-46.439011,,,,,,,
1508183987.169325,0.023382,-0.035012,-3.128098,0.007075,0.015693,-0.013560,0.023366,0.035004,-0.999114,-0.008778,-0.006486,0.006392,13.199072,27.428106,-46.434204,,,,,,,
1508183987.189332,0.023601,-0.034869,-3.128513,-0.000508,0.030621,-0.026564,0.023584,0.034862,-0.999114,-0.013925,-0.005489,0.008574,13.198077,27.421333,-46.438488,,,,,,,
1508183987.209322,0.023944,-0.034804,-3.129246,0.004823,0.019998,-0.042409,0.023927,0.034797,-0.999108,-0.006151,-0.002403,0.003014,13.189233,27.421061,-46.441158,,,,,,,
1508183987.229325,0.024372,-0.034707,-3.130263,0.004679,0.053047,-0.056750,0.024355,0.034700,-0.999101,-0.006395,0.000487,0.005647,13.183976,27.428885,-46.438034,,,,,,,
1508183987.249353,0.026114,-0.034876,-3.131538,-0.012492,0.063717,-0.062223,0.026095,0.034869,-0.999051,0.015165,0.000821,0.006497,13.205745,27.447500,-46.420841,,,,,,,
1508183987.269359,0.027469,-0.035437,-3.132402,-0.012307,0.030644,-0.035086,0.027449,0.035430,-0.998995,0.007845,0.006227,0.006319,13.255904,27.474203,-46.390739,,,,,,,
1508183987.289367,0.027874,-0.035825,-3.132908,-0.002650,0.030624,-0.026563,0.027853,0.035817,-0.998970,-0.004888,0.005092,0.002815,13.276732,27.508356,-46.364536,,,,,,,
1508183987.309372,0.028622,-0.036124,-3.133625,-0.015591,0.049827,-0.039627,0.028600,0.036116,-0.998938,-0.001332,0.002794,-0.004907,13.286249,27.529791,-46.349087,,,,,,,
1508183987.329380,0.029389,-0.036684,-3.134391,-0.005887,0.029576,-0.035076,0.029365,0.036676,-0.998896,-0.000908,0.008139,-0.000784,13.302525,27.557486,-46.327957,,,,,,,
1508183987.349386,0.030038,-0.036960,-3.135079,0.001550,0.045528,-0.033176,0.030013,0.036951,-0.998866,-0.003692,0.004049,-0.002858,13.316095,27.589371,-46.305073,,,,,,,
1508183987.369393,0.030651,-0.036711,-3.135811,0.006922,0.033817,-0.037276,0.030625,0.036703,-0.998857,-0.004746,-0.002752,0.005388,13.329758,27.594036,-46.298363,,,,,,,
1508183987.389399,0.031340,-0.036489,-3.136663,0.010075,0.048737,-0.041760,0.031314,0.036480,-0.998844,-0.009983,-0.004803,0.006046,13.326900,27.590126,-46.301517,,,,,,,
1508183987.409406,0.032173,-0.035939,-3.137638,0.003612,0.053018,-0.051414,0.032147,0.035932,-0.998837,-0.000592,-0.014752,0.004178,13.346619,27.590303,-46.295731,,,,,,,
1508183987.429410,0.033469,-0.035566,-3.138683,-0.024292,0.081787,-0.051810,0.033442,0.035558,-0.998808,0.000998,-0.015767,-0.010500,13.351876,27.578005,-46.301540,,,,,,,
1508183987.449420,0.035166,-0.035753,-3.139538,-0.011377,0.072170,-0.037818,0.035136,0.035746,-0.998743,0.009069,-0.009699,-0.014502,13.418959,27.580156,-46.280861,,,,,,,
1508183987.469426,0.037464,-0.035435,-3.140202,0.004535,0.130736,-0.028016,0.037432,0.035428,-0.998671,0.003904,-0.008679,-0.000673,13.499574,27.592773,-46.249886,,,,,,,
1508183987.489433,0.040737,-0.035189,-3.140385,0.013150,0.141335,-0.001519,0.040700,0.035182,-0.998552,0.015650,-0.005183,-0.006102,13.594371,27.585228,-46.226612,,,,,,,
1508183987.509440,0.043669,-0.034950,-3.140143,0.015379,0.131682,0.021015,0.043628,0.034943,-0.998437,0.013669,0.005798,-0.005424,13.754879,27.571531,-46.187290,,,,,,,
1508183987.529446,0.047196,-0.035378,-3.139659,0.028138,0.152996,0.016431,0.047149,0.035370,-0.998261,0.015931,0.027206,0.006700,13.939573,27.554859,-46.141846,,,,,,,
1508183987.549454,0.051100,-0.034837,-3.139556,0.044114,0.173242,0.011860,0.051047,0.034830,-0.998089,0.016748,0.010076,0.002407,14.074713,27.559633,-46.097946,,,,,,,
1508183987.569461,0.054130,-0.033471,-3.138544,0.077819,0.064453,0.077391,0.054073,0.033465,-0.997976,0.031056,-0.001407,-0.010264,14.288445,27.516476,-46.057961,,,,,,,
1508183987.589459,0.054642,-0.031716,-3.136848,0.114351,0.018629,0.082293,0.054587,0.031711,-0.998005,-0.026297,0.012204,0.027684,14.427537,27.389381,-46.090343,,,,,,,
1508183987.609474,0.056504,-0.029757,-3.136311,0.078411,0.141303,0.000569,0.056449,0.029752,-0.997962,-0.034781,0.002337,0.039542,14.456693,27.313721,-46.126095,,,,,,,
1508183987.629478,0.059798,-0.028838,-3.137476,0.010560,0.199007,-0.082323,0.059738,0.028834,-0.997798,-0.014785,-0.009379,0.037638,14.584955,27.251736,-46.122375,,,,,,,
1508183987.649487,0.063793,-0.029199,-3.139265,-0.021554,0.193706,-0.090752,0.063722,0.029195,-0.997541,-0.011903,-0.000050,0.014417,14.746436,27.270126,-46.060120,,,,,,,
1508183987.669494,0.066811,-0.029654,-3.140993,-0.001025,0.130796,-0.082377,0.066732,0.029649,-0.997330,-0.006017,0.004439,-0.005767,14.859926,27.312160,-45.998699,,,,,,,
1508183987.689500,0.068728,-0.029478,3.140703,0.025888,0.088157,-0.071116,0.068644,0.029474,-0.997206,-0.015833,0.006796,-0.007372,14.899948,27.332148,-45.973873,,,,,,,
1508183987.709506,0.070630,-0.028847,3.138876,0.024521,0.155327,-0.101946,0.070542,0.028843,-0.997092,-0.020142,-0.006031,0.005087,14.963617,27.329426,-45.954811,,,,,,,
1508183987.729514,0.074625,-0.028952,3.136343,-0.007903,0.224647,-0.138115,0.074524,0.028948,-0.996799,0.006637,-0.011781,0.004261,15.048109,27.346716,-45.916916,,,,,,,
1508183987.749492,0.079630,-0.028891,3.133873,0.007291,0.185175,-0.108763,0.079513,0.028887,-0.996415,0.031251,-0.012026,-0.005156,15.148176,27.383213,-45.862232,,,,,,,
1508183987.769526,0.081852,-0.028464,3.132596,0.034604,0.076367,-0.034697,0.081728,0.028460,-0.996248,0.030623,-0.013171,-0.004805,15.303244,27.384678,-45.809845,,,,,,,
1508183987.789533,0.083244,-0.027317,3.132609,0.044505,0.045365,0.020126,0.083117,0.027313,-0.996165,0.009962,-0.010590,0.025356,15.353339,27.350252,-45.813648,,,,,,,
1508183987.809541,0.084777,-0.026708,3.133317,0.031727,0.059152,0.051925,0.084646,0.026705,-0.996053,0.006953,-0.008730,0.003438,15.428077,27.308899,-45.813210,,,,,,,
1508183987.829546,0.085499,-0.025815,3.134283,0.015685,0.046319,0.047918,0.085366,0.025812,-0.996015,-0.011346,-0.013010,0.005506,15.528431,27.259468,-45.808743,,,,,,,
1508183987.849545,0.086675,-0.025594,3.134843,-0.000520,0.066620,0.018845,0.086539,0.025591,-0.995920,-0.001425,-0.018785,0.011682,15.532911,27.235590,-45.821423,,,,,,,
1508183987.869560,0.088258,-0.025225,3.135354,-0.017465,0.025052,0.034389,0.088116,0.025222,-0.995791,0.021305,-0.020797,-0.017423,15.637125,27.219753,-45.795383,,,,,,,
1508183987.889567,0.087756,-0.024879,3.136619,0.037500,-0.056013,0.081375,0.087617,0.024876,-0.995844,0.013229,-0.013493,-0.031821,15.700861,27.179495,-45.797485,,,,,,,
1508183987.909573,0.086312,-0.022477,3.138411,0.070773,-0.070967,0.097561,0.086183,0.022475,-0.996026,-0.001833,-0.016799,-0.017265,15.699089,27.164513,-45.806980,,,,,,,
1508183987.929557,0.084755,-0.020355,3.139917,0.041588,0.000459,0.070956,0.084636,0.020353,-0.996204,-0.021205,-0.015547,-0.012875,15.668031,26.965637,-45.934944,,,,,,,
1508183987.949587,0.084555,-0.018863,3.140852,0.043525,0.033544,0.037420,0.084440,0.018862,-0.996250,-0.008909,-0.010241,-0.014416,15.674245,26.857738,-45.995995,,,,,,,
1508183987.969594,0.084753,-0.017738,3.141175,0.032775,0.012311,0.002548,0.084638,0.017737,-0.996254,-0.004560,-0.002570,-0.014900,15.675699,26.831825,-46.010620,,,,,,,
1508183987.989601,0.084801,-0.017127,3.141333,0.029680,0.001607,0.028297,0.084687,0.017126,-0.996260,0.003844,0.006082,-0.019227,15.694082,26.754915,-46.049126,,,,,,,
1508183988.009607,0.084573,-0.017330,-3.141015,0.039509,-0.045303,0.048163,0.084459,0.017329,-0.996276,0.009199,0.025792,-0.027344,15.712080,26.728933,-46.058079,,,,,,,
1508183988.029615,0.083663,-0.017717,-3.140244,0.040518,-0.029321,0.045798,0.083552,0.017716,-0.996346,0.000127,0.028991,-0.024376,15.714055,26.743969,-46.048676,,,,,,,
1508183988.049618,0.083096,-0.018331,-3.138746,0.061053,-0.050722,0.091943,0.082987,0.018330,-0.996382,0.005377,0.040630,-0.013597,15.696709,26.763237,-46.043392,,,,,,,
1508183988.069628,0.081856,-0.017844,-3.136801,0.049327,-0.049687,0.107931,0.081751,0.017843,-0.996493,-0.010127,0.035074,0.000811,15.693604,26.738274,-46.058956,,,,,,,
1508183988.089634,0.081282,-0.016940,-3.134371,0.031163,-0.025243,0.138513,0.081180,0.016939,-0.996555,0.000820,0.025282,0.010380,15.722115,26.664896,-46.091759,,,,,,,
1508183988.109642,0.080404,-0.016382,-3.131411,0.052741,-0.065764,0.157211,0.080306,0.016381,-0.996636,-0.002868,0.010245,0.026894,15.758444,26.632370,-46.098156,,,,,,,
1508183988.129648,0.078671,-0.015032,-3.128056,0.047583,-0.102033,0.183332,0.078581,0.015031,-0.996794,-0.005964,-0.011552,0.044966,15.780160,26.506216,-46.163395,,,,,,,
1508183988.149654,0.076379,-0.013950,-3.124150,0.002801,-0.132954,0.204074,0.076297,0.013950,-0.996988,0.004422,-0.020282,0.044717,15.783469,26.417509,-46.213081,,,,,,,
1508183988.169662,0.073256,-0.013874,-3.119839,-0.017367,-0.171329,0.219574,0.073184,0.013874,-0.997222,0.010053,-0.019901,0.036422,15.783469,26.417509,-46.213081,,,,,,,
1508183988.189668,0.069464,-0.013300,-3.115251,-0.016193,-0.195847,0.228459,0.069402,0.013300,-0.997500,-0.008016,-0.020609,0.022204,15.701982,26.255951,-46.332764,,,,,,,
1508183988.209674,0.065962,-0.013323,-3.111314,-0.012211,-0.157386,0.171385,0.065908,0.013323,-0.997737,-0.019781,-0.010546,0.002345,15.638723,26.204308,-46.383366,,,,,,,
1508183988.229682,0.063210,-0.013084,-3.108731,-0.009422,-0.086952,0.105317,0.063163,0.013084,-0.997917,-0.012229,-0.009406,-0.006080,15.578295,26.163429,-46.426754,,,,,,,
1508183988.249661,0.062034,-0.013446,-3.107315,-0.028981,-0.048485,0.048259,0.061989,0.013445,-0.997986,0.000893,-0.006365,-0.020828,15.549046,26.146212,-46.446255,,,,,,,
1508183988.269667,0.061279,-0.013827,-3.106585,-0.002315,-0.038869,0.031039,0.061235,0.013827,-0.998028,0.005461,0.015577,-0.037861,15.534004,26.156021,-46.445763,,,,,,,
1508183988.289702,0.060359,-0.012935,-3.106069,0.066198,-0.049537,0.030076,0.060317,0.012935,-0.998095,0.008729,0.022114,-0.040280,15.513506,26.141579,-46.460743,,,,,,,
1508183988.309708,0.059571,-0.011883,-3.105696,0.088560,-0.030338,0.014852,0.059532,0.011882,-0.998156,-0.001518,0.025410,-0.030973,15.478426,26.076469,-46.509007,,,,,,,
1508183988.329714,0.059378,-0.010105,-3.105879,0.085167,0.001674,-0.012267,0.059340,0.010105,-0.998187,0.007050,0.015835,-0.018934,15.473305,26.054714,-46.522903,,,,,,,
1508183988.349722,0.059568,-0.008869,-3.106099,0.084191,-0.017522,-0.000258,0.059531,0.008868,-0.998187,0.006341,0.016141,-0.009961,15.474005,25.955385,-46.578156,,,,,,,
1508183988.369728,0.058695,-0.006936,-3.105986,0.101455,-0.058151,0.013238,0.058660,0.006936,-0.998254,-0.010137,0.020392,0.000726,15.444546,25.848511,-46.647320,,,,,,,
1508183988.389717,0.057407,-0.005343,-3.105971,0.119501,-0.018728,0.005188,0.057375,0.005343,-0.998338,-0.027102,0.023527,0.016344,15.432687,25.823811,-46.664921,,,,,,,
1508183988.409741,0.057250,-0.002943,-3.106409,0.110795,-0.004814,-0.026996,0.057219,0.002943,-0.998357,-0.004393,0.002780,0.035772,15.368830,25.689825,-46.759850,,,,,,,
1508183988.429746,0.057057,-0.001427,-3.107278,0.059403,-0.010100,-0.040743,0.057026,0.001427,-0.998372,-0.000447,-0.002068,0.049885,15.338998,25.588924,-46.824932,,,,,,,
1508183988.449753,0.056662,-0.000903,-3.107806,0.012454,-0.029310,-0.016971,0.056632,0.000903,-0.998395,0.004434,0.001126,0.038998,15.309269,25.561457,-46.849651,,,,,,,
1508183988.469735,0.055993,-0.000975,-3.108119,0.001763,-0.028250,-0.012713,0.055963,0.000975,-0.998432,-0.007807,0.004380,0.020771,15.278016,25.565203,-46.857807,,,,,,,
1508183988.489769,0.055331,-0.000656,-3.108407,0.025330,-0.037841,-0.013658,0.055303,0.000656,-0.998469,-0.000982,0.002259,0.008433,15.233501,25.560518,-46.874855,,,,,,,
1508183988.509748,0.054526,-0.000238,-3.108697,0.014635,-0.041032,-0.014670,0.054499,0.000238,-0.998514,-0.002024,-0.001092,0.007547,15.189800,25.541683,-46.899296,,,,,,,
1508183988.529782,0.054115,-0.000401,-3.108995,-0.017578,-0.002677,-0.014136,0.054089,0.000401,-0.998536,-0.000530,0.000911,0.001359,15.159357,25.540775,-46.909645,,,,,,,
1508183988.549789,0.054586,-0.001062,-3.109084,-0.016426,-0.013359,0.002013,0.054558,0.001062,-0.998510,0.014564,0.004783,-0.013102,15.154624,25.573172,-46.893517,,,,,,,
1508183988.569769,0.054375,-0.001128,-3.108756,0.026518,-0.035785,0.025765,0.054348,0.001128,-0.998521,0.005909,0.004671,-0.012389,15.167171,25.584721,-46.883160,,,,,,,
1508183988.589802,0.054198,-0.000355,-3.107860,0.049057,-0.025198,0.056517,0.054171,0.000355,-0.998532,0.008527,0.002758,-0.007999,15.172114,25.562479,-46.893692,,,,,,,
1508183988.609809,0.053884,0.000455,-3.106741,0.026594,-0.022006,0.061819,0.053858,-0.000455,-0.998549,0.001577,0.000410,-0.008806,15.195069,25.492254,-46.924477,,,,,,,
1508183988.629794,0.053489,0.001138,-3.105457,0.049063,-0.015631,0.067041,0.053464,-0.001138,-0.998569,-0.001630,0.005380,-0.011090,15.204358,25.463547,-46.937050,,,,,,,
1508183988.649822,0.052209,0.002500,-3.103836,0.085592,-0.031684,0.098169,0.052186,-0.002500,-0.998634,-0.036881,0.004041,0.078422,15.232649,25.396601,-46.964142,,,,,,,
1508183988.669828,0.051901,0.003107,-3.102017,-0.007745,0.013146,0.064534,0.051878,-0.003107,-0.998649,-0.007047,-0.004980,0.067649,15.218311,25.298143,-47.021896,,,,,,,
1508183988.689833,0.051354,0.001580,-3.101505,-0.076101,-0.083675,0.015873,0.051331,-0.001580,-0.998680,0.008606,0.003243,-0.007286,15.229568,25.295052,-47.019917,,,,,,,
1508183988.709819,0.049463,0.000809,-3.100329,-0.001015,-0.078488,0.076521,0.049443,-0.000809,-0.998777,-0.018620,0.023224,-0.045596,15.177052,25.385515,-46.988132,,,,,,,
1508183988.729848,0.049034,0.001810,-3.099320,0.074582,-0.003845,0.028464,0.049014,-0.001810,-0.998796,0.005353,0.007715,-0.042479,15.155054,25.332735,-47.023701,,,,,,,
1508183988.749830,0.048999,0.003330,-3.098883,0.074573,0.001478,0.030520,0.048979,-0.003330,-0.998794,0.000734,0.003117,-0.019821,15.161581,25.322443,-47.027145,,,,,,,
1508183988.769863,0.049104,0.004910,-3.098618,0.066916,0.028163,0.003481,0.049084,-0.004910,-0.998783,-0.007534,-0.004199,0.004672,15.182917,25.205854,-47.082859,,,,,,,
1508183988.789868,0.049925,0.006035,-3.098730,0.050787,0.046292,-0.004234,0.049903,-0.006035,-0.998736,-0.005637,-0.004692,0.019274,15.213339,25.124704,-47.116402,,,,,,,
1508183988.809871,0.050636,0.006685,-3.098792,0.018799,0.014332,0.001585,0.050613,-0.006685,-0.998696,0.003891,-0.001967,0.022576,15.223717,25.113056,-47.119259,,,,,,,
1508183988.829875,0.050826,0.006905,-3.098716,0.011345,0.007932,0.007015,0.050803,-0.006905,-0.998685,-0.004432,0.007088,0.013272,15.261943,25.077013,-47.126087,,,,,,,
1508183988.849890,0.050954,0.007006,-3.098426,0.004987,-0.000612,0.018873,0.050930,-0.007006,-0.998678,0.001575,0.003954,0.002874,15.276708,25.059809,-47.130459,,,,,,,
1508183988.869885,0.050838,0.007184,-3.098055,0.017851,-0.007009,0.020022,0.050814,-0.007184,-0.998682,-0.005007,0.012875,-0.008871,15.283350,25.058891,-47.128792,,,,,,,
1508183988.889885,0.050718,0.007518,-3.097808,0.035938,0.013251,0.006919,0.050695,-0.007517,-0.998686,-0.008184,0.011469,-0.002886,15.290361,25.032681,-47.140446,,,,,,,
1508183988.909909,0.050937,0.007603,-3.097849,0.040120,0.035635,-0.001940,0.050913,-0.007603,-0.998674,-0.008189,0.012074,0.009065,15.298417,25.019522,-47.144814,,,,,,,
1508183988.929914,0.051606,0.007613,-3.098012,0.010177,0.022871,-0.007064,0.051582,-0.007613,-0.998640,0.001504,0.006972,0.014433,15.309738,25.025425,-47.138008,,,,,,,
1508183988.949923,0.051776,0.006933,-3.098014,-0.008963,-0.004847,0.006148,0.051751,-0.006933,-0.998636,-0.001565,0.012106,0.007471,15.331985,25.041756,-47.122101,,,,,,,
1508183988.969930,0.051132,0.006323,-3.097840,-0.000327,-0.025101,0.011767,0.051108,-0.006323,-0.998673,-0.004950,0.010122,0.006043,15.314297,25.075832,-47.109730,,,,,,,
1508183988.989922,0.049779,0.006040,-3.097542,0.024323,-0.038959,0.011949,0.049758,-0.006040,-0.998743,-0.016143,0.010892,0.013056,15.280878,25.096701,-47.109470,,,,,,,
1508183989.009943,0.048593,0.006312,-3.097699,0.004878,-0.010136,-0.018312,0.048573,-0.006312,-0.998800,-0.012837,-0.001455,0.017415,15.212114,25.091248,-47.134624,,,,,,,
1508183989.029949,0.048373,0.005857,-3.098249,-0.032699,0.014404,-0.034634,0.048354,-0.005857,-0.998813,-0.007857,0.001921,0.010456,15.172155,25.102648,-47.141434,,,,,,,
1508183989.049940,0.048439,0.004868,-3.098840,-0.030462,-0.009049,-0.025765,0.048419,-0.004868,-0.998815,0.002316,0.006287,0.004949,15.156610,25.143097,-47.124874,,,,,,,
1508183989.069964,0.047832,0.004446,-3.099159,-0.007852,-0.043166,-0.013558,0.047813,-0.004445,-0.998846,0.000343,0.004369,0.003439,15.143023,25.177223,-47.111019,,,,,,,
1508183989.089970,0.046915,0.004042,-3.099570,-0.015461,-0.017574,-0.026719,0.046897,-0.004042,-0.998892,-0.008369,0.002242,0.014913,15.074682,25.210831,-47.114964,,,,,,,
1508183989.109968,0.046827,0.003398,-3.100329,-0.032690,-0.003681,-0.047168,0.046810,-0.003398,-0.998898,0.003514,0.001139,0.009137,15.042573,25.237062,-47.111183,,,,,,,
1508183989.129984,0.047115,0.002397,-3.101224,-0.054135,0.015492,-0.043164,0.047098,-0.002397,-0.998887,0.004630,-0.001296,0.008272,15.022928,25.288071,-47.090092,,,,,,,
1508183989.149989,0.047701,0.001424,-3.102065,-0.026299,0.009097,-0.044159,0.047683,-0.001424,-0.998861,0.009904,0.004155,-0.002268,15.021297,25.361614,-47.051044,,,,,,,
1508183989.169996,0.048292,0.000857,-3.102696,-0.026143,-0.019704,-0.022415,0.048273,-0.000857,-0.998834,0.020086,0.002170,-0.008323,15.028703,25.376007,-47.040916,,,,,,,
1508183989.190003,0.048383,0.000370,-3.102853,-0.013184,-0.038916,-0.002952,0.048364,-0.000370,-0.998830,0.015952,0.002323,-0.008693,15.042809,25.426733,-47.009010,,,,,,,
1508183989.210008,0.048085,-0.000043,-3.102805,-0.023925,-0.020811,0.001059,0.048066,0.000043,-0.998844,0.005507,0.000980,-0.010616,15.025781,25.448683,-47.002579,,,,,,,
1508183989.229994,0.048075,-0.000532,-3.102759,-0.012196,-0.005902,0.001900,0.048057,0.000532,-0.998845,0.004632,0.002596,-0.016338,15.026140,25.455393,-46.998829,,,,,,,
1508183989.250025,0.048090,-0.000500,-3.102755,0.008126,-0.001647,0.002889,0.048071,0.000500,-0.998844,0.002420,-0.001660,-0.004925,15.026422,25.481525,-46.984573,,,,,,,
1508183989.270030,0.048074,-0.000125,-3.102655,0.014569,-0.009105,0.002993,0.048056,0.000125,-0.998845,0.003839,-0.003115,0.008946,15.026677,25.464354,-46.993801,,,,,,,
1508183989.290022,0.048218,0.000190,-3.102720,0.013389,0.020735,-0.003837,0.048200,-0.000190,-0.998838,-0.002500,-0.002419,0.011914,15.029653,25.451481,-46.999825,,,,,,,
1508183989.310044,0.048961,0.000598,-3.102653,0.001719,0.002603,0.010297,0.048941,-0.000598,-0.998801,0.011331,-0.006558,0.012153,15.053915,25.432264,-47.002460,,,,,,,
1508183989.330029,0.048676,0.000772,-3.102341,-0.023847,-0.027231,0.018213,0.048656,-0.000772,-0.998815,0.001240,-0.007361,0.012624,15.068861,25.413786,-47.007668,,,,,,,
1508183989.350050,0.048280,0.000172,-3.101990,-0.027135,-0.006981,0.012590,0.048262,-0.000172,-0.998835,-0.001402,0.002842,-0.003103,15.058628,25.420361,-47.007393,,,,,,,
1508183989.370065,0.048438,-0.000114,-3.101745,0.001744,-0.004975,0.015856,0.048419,0.000114,-0.998827,0.006970,0.001946,-0.008329,15.061802,25.444256,-46.993439,,,,,,,
1508183989.390071,0.048670,0.000027,-3.101402,0.014572,0.001410,0.017886,0.048651,-0.000027,-0.998816,0.007334,0.001736,-0.001947,15.079868,25.437313,-46.991405,,,,,,,
1508183989.410059,0.049077,0.000190,-3.101081,-0.001492,0.003551,0.015735,0.049058,-0.000190,-0.998796,0.008682,-0.002587,-0.004515,15.102807,25.427277,-46.989475,,,,,,,
1508183989.430084,0.049439,0.000177,-3.100733,-0.010048,0.006741,0.019960,0.049419,-0.000177,-0.998778,0.003834,-0.002356,-0.001436,15.131351,25.418985,-46.984772,,,,,,,
1508183989.450091,0.049563,0.000084,-3.100243,0.000689,-0.000727,0.024326,0.049543,-0.000084,-0.998772,0.000125,0.001732,-0.004417,15.158070,25.416960,-46.977261,,,,,,,
1508183989.470076,0.049490,0.000325,-3.099894,0.013457,0.013137,0.014518,0.049470,-0.000325,-0.998776,-0.010759,0.001240,-0.000812,15.165115,25.407703,-46.979992,,,,,,,
1508183989.490104,0.049622,0.000490,-3.099862,0.017639,0.024890,-0.004849,0.049601,-0.000490,-0.998769,-0.007640,0.003679,-0.001460,15.169697,25.396364,-46.984642,,,,,,,
1508183989.510111,0.049861,0.000770,-3.100079,0.012312,0.011054,-0.009976,0.049841,-0.000770,-0.998757,-0.003637,0.002097,-0.000129,15.173795,25.392378,-46.985474,,,,,,,
1508183989.530104,0.049975,0.000905,-3.100112,0.010261,-0.007076,0.000952,0.049955,-0.000905,-0.998751,-0.002942,0.002034,0.009249,15.184166,25.377600,-46.990108,,,,,,,
1508183989.550124,0.049520,0.000776,-3.100073,-0.001511,-0.007074,0.000960,0.049500,-0.000776,-0.998774,-0.007706,0.005979,0.011210,15.175416,25.376081,-46.993755,,,,,,,
1508183989.570105,0.049294,0.000636,-3.100147,0.009119,0.005724,-0.008830,0.049274,-0.000636,-0.998785,-0.004566,0.005351,-0.002970,15.155798,25.385334,-46.995087,,,,,,,
1508183989.590132,0.049402,0.000812,-3.100370,0.015510,0.015309,-0.008974,0.049382,-0.000812,-0.998780,-0.008779,0.003513,-0.002044,15.153008,25.385199,-46.996063,,,,,,,
1508183989.610118,0.049240,0.000990,-3.100642,0.022987,0.007870,-0.019535,0.049220,-0.000990,-0.998787,-0.008982,0.005033,0.004799,15.145063,25.381670,-47.000526,,,,,,,
1508183989.630136,0.048999,0.001206,-3.101186,0.009058,0.005756,-0.026958,0.048979,-0.001206,-0.998799,-0.009230,0.001313,0.018529,15.122129,25.374025,-47.012035,,,,,,,
1508183989.650129,0.048759,0.000851,-3.101780,-0.029421,-0.017654,-0.035120,0.048739,-0.000851,-0.998811,-0.000643,0.001873,0.017122,15.093580,25.390135,-47.012516,,,,,,,
1508183989.670136,0.048351,-0.000047,-3.102334,-0.027280,-0.007024,-0.024613,0.048333,0.000047,-0.998831,-0.005165,0.004912,0.003089,15.066117,25.426020,-47.001934,,,,,,,
1508183989.690172,0.048303,-0.000375,-3.102680,-0.001564,-0.005988,-0.012918,0.048285,0.000375,-0.998834,0.003717,0.003149,0.001458,15.038615,25.465166,-46.989544,,,,,,,
1508183989.710157,0.048212,-0.000408,-3.102834,0.001656,-0.004932,-0.008671,0.048193,0.000408,-0.998838,-0.003729,0.002415,0.008665,15.035278,25.470352,-46.987801,,,,,,,
1508183989.730185,0.048073,-0.000595,-3.103071,-0.019723,-0.012384,-0.008547,0.048055,0.000595,-0.998845,-0.000448,-0.001679,0.014378,15.028099,25.474909,-46.987625,,,,,,,
1508183989.750192,0.047538,-0.001131,-3.103092,-0.051744,-0.030500,-0.000796,0.047520,0.001131,-0.998870,-0.005634,-0.009263,0.018340,15.003912,25.508102,-46.977348,,,,,,,
1508183989.770185,0.046824,-0.002083,-3.103089,-0.051776,-0.023038,-0.004103,0.046807,0.002083,-0.998902,-0.012261,-0.005532,0.012589,14.978861,25.538187,-46.968994,,,,,,,
1508183989.790205,0.046015,-0.002769,-3.103178,-0.037840,-0.032628,-0.005041,0.045998,0.002769,-0.998938,-0.012246,-0.004264,0.012915,14.950638,25.566776,-46.962437,,,,,,,
1508183989.810211,0.044991,-0.003431,-3.103213,-0.041017,-0.044344,-0.005935,0.044976,0.003431,-0.998982,-0.003731,0.000231,-0.005672,14.881981,25.611448,-46.959900,,,,,,,
1508183989.830209,0.043875,-0.004097,-3.103285,-0.033511,-0.048610,-0.004812,0.043860,0.004097,-0.999029,-0.004599,-0.001091,-0.007471,14.841211,25.638750,-46.957905,,,,,,,
1508183989.850225,0.043211,-0.004828,-3.103511,-0.036894,-0.008098,-0.021392,0.043197,0.004828,-0.999055,-0.006271,-0.000998,-0.006652,14.800586,25.663031,-46.957466,,,,,,,
1508183989.870231,0.043216,-0.005451,-3.103997,-0.019797,-0.003835,-0.024665,0.043201,0.005451,-0.999052,0.008328,0.000912,-0.003680,14.756195,25.720476,-46.939999,,,,,,,
1508183989.890209,0.043048,-0.005886,-3.104444,-0.029337,-0.030469,-0.021073,0.043034,0.005886,-0.999056,0.013790,-0.001964,-0.000181,14.747089,25.739069,-46.932671,,,,,,,
1508183989.910245,0.042967,-0.006847,-3.104701,-0.043282,-0.013430,-0.015978,0.042953,0.006847,-0.999054,0.002381,0.004307,-0.003891,14.738622,25.775021,-46.915592,,,,,,,
1508183989.930251,0.042928,-0.007670,-3.105063,-0.010139,-0.012357,-0.023483,0.042914,0.007670,-0.999049,0.004022,0.007467,-0.005574,14.719912,25.834869,-46.888542,,,,,,,
1508183989.950239,0.043233,-0.007685,-3.105443,-0.010138,0.003594,-0.008786,0.043218,0.007685,-0.999036,0.008860,-0.003885,0.003766,14.715432,25.850922,-46.881104,,,,,,,
1508183989.970266,0.043689,-0.007862,-3.105341,-0.018592,-0.016669,0.005377,0.043673,0.007862,-0.999015,0.013913,-0.003468,0.006354,14.735772,25.855036,-46.872444,,,,,,,
1508183989.990271,0.043256,-0.008055,-3.105032,-0.013138,-0.032682,0.022666,0.043241,0.008055,-0.999032,-0.001036,-0.003492,0.002908,14.739202,25.866919,-46.864807,,,,,,,
1508183990.010267,0.042031,-0.007883,-3.104729,-0.004628,-0.032655,0.006664,0.042018,0.007883,-0.999086,-0.014109,-0.006815,0.006868,14.711628,25.859522,-46.877552,,,,,,,
1508183990.030278,0.041104,-0.007871,-3.104759,-0.004669,-0.031568,-0.005081,0.041091,0.007871,-0.999124,-0.013824,-0.005338,0.006784,14.676866,25.853964,-46.891514,,,,,,,
1508183990.050292,0.040131,-0.007991,-3.105090,-0.025115,-0.011292,-0.022420,0.040118,0.007991,-0.999163,-0.011112,-0.005412,-0.002104,14.602376,25.860394,-46.911217,,,,,,,
1508183990.070281,0.039816,-0.008510,-3.105655,-0.008058,-0.002752,-0.034286,0.039804,0.008510,-0.999171,-0.003137,0.004933,-0.010518,14.568453,25.877792,-46.912170,,,,,,,
1508183990.090306,0.039655,-0.008352,-3.106458,0.014411,-0.010199,-0.041659,0.039643,0.008352,-0.999179,0.000930,-0.002538,-0.006574,14.543205,25.899590,-46.907974,,,,,,,
1508183990.110313,0.039629,-0.008342,-3.107264,-0.016674,0.008981,-0.040848,0.039617,0.008342,-0.999180,0.000117,-0.002696,-0.002727,14.509271,25.902456,-46.916901,,,,,,,
1508183990.130293,0.039970,-0.008795,-3.108175,-0.013520,0.022837,-0.045316,0.039957,0.008795,-0.999163,-0.000574,0.003961,-0.003721,14.499001,25.933245,-46.903069,,,,,,,
1508183990.150326,0.040419,-0.008826,-3.108818,-0.004797,-0.008098,-0.023548,0.040406,0.008825,-0.999144,0.009780,-0.003698,-0.001069,14.501555,25.946579,-46.894901,,,,,,,
1508183990.170332,0.039709,-0.008739,-3.109012,0.001778,-0.042221,-0.007064,0.039697,0.008739,-0.999174,-0.006616,-0.002300,0.004682,14.482382,25.949753,-46.899067,,,,,,,
1508183990.190339,0.038808,-0.008628,-3.109326,0.007023,-0.024082,-0.023325,0.038797,0.008628,-0.999210,-0.017297,-0.001624,0.001804,14.442734,25.948153,-46.912178,,,,,,,
1508183990.210347,0.038212,-0.008499,-3.110255,-0.000655,-0.000574,-0.059915,0.038201,0.008498,-0.999234,-0.014611,-0.002990,0.004224,14.405128,25.946514,-46.924644,,,,,,,
1508183990.230352,0.038253,-0.008716,-3.111714,-0.025421,0.030362,-0.079538,0.038243,0.008716,-0.999230,-0.001835,-0.003772,0.011834,14.332111,25.972475,-46.932644,,,,,,,
1508183990.250349,0.038941,-0.009060,-3.113159,-0.013577,0.017555,-0.068698,0.038930,0.009060,-0.999201,0.013744,-0.002941,0.014841,14.323476,26.001997,-46.918930,,,,,,,
1508183990.270366,0.039454,-0.009082,-3.114242,0.000459,0.002591,-0.043967,0.039442,0.009082,-0.999181,0.015673,-0.004077,0.012822,14.317568,26.021280,-46.910042,,,,,,,
1508183990.290373,0.040172,-0.009124,-3.114804,-0.020850,-0.005962,-0.023567,0.040160,0.009124,-0.999152,0.017762,-0.004500,0.010611,14.323301,26.036436,-46.899883,,,,,,,
1508183990.310377,0.040285,-0.009530,-3.115122,-0.024035,-0.002785,-0.012948,0.040272,0.009529,-0.999143,0.008846,-0.003945,0.003797,14.330333,26.052469,-46.888828,,,,,,,
1508183990.330386,0.040481,-0.009944,-3.115360,-0.028315,-0.005972,-0.016097,0.040468,0.009944,-0.999131,0.006911,-0.002712,-0.007109,14.337486,26.071636,-46.875988,,,,,,,
1508183990.350393,0.040621,-0.010589,-3.115633,-0.027270,0.004677,-0.014120,0.040607,0.010589,-0.999119,0.003964,0.002976,-0.014232,14.337651,26.084179,-46.868958,,,,,,,
1508183990.370399,0.041234,-0.011284,-3.116007,-0.009170,0.025879,-0.017531,0.041220,0.011283,-0.999086,0.006296,0.006997,-0.001753,14.336558,26.118128,-46.850380,,,,,,,
1508183990.390406,0.042190,-0.011276,-3.116243,0.004771,0.024796,-0.008996,0.042175,0.011276,-0.999047,0.011597,-0.001693,0.007729,14.372595,26.161266,-46.815262,,,,,,,
1508183990.410404,0.043089,-0.011082,-3.116182,-0.013297,0.009842,0.014694,0.043073,0.011081,-0.999011,0.011599,-0.007450,0.007784,14.420968,26.153734,-46.804588,,,,,,,
1508183990.430403,0.043058,-0.011204,-3.115557,-0.030220,-0.033868,0.035600,0.043042,0.011204,-0.999010,0.004992,-0.007587,0.006930,14.452845,26.145821,-46.799179,,,,,,,
1508183990.450409,0.042559,-0.011804,-3.114877,-0.037810,-0.007222,0.028821,0.042543,0.011803,-0.999025,-0.004702,-0.006600,0.003755,14.448694,26.152060,-46.796974,,,,,,,
1508183990.470414,0.042831,-0.012118,-3.114345,-0.025024,0.006633,0.024346,0.042815,0.012118,-0.999010,0.006090,-0.008044,-0.009963,14.460692,26.178589,-46.778431,,,,,,,
1508183990.490439,0.043200,-0.012023,-3.113760,-0.011103,0.011942,0.031723,0.043183,0.012023,-0.998995,0.003478,-0.009139,-0.004652,14.486984,26.170488,-46.774830,,,,,,,
1508183990.510448,0.043582,-0.012148,-3.113083,-0.016452,0.011944,0.031727,0.043564,0.012148,-0.998977,0.005386,-0.009249,-0.004289,14.510964,26.163717,-46.771179,,,,,,,
1508183990.530453,0.043939,-0.012000,-3.112302,-0.005651,-0.007258,0.044793,0.043922,0.011999,-0.998963,0.007653,-0.007116,-0.001968,14.563580,26.152647,-46.761021,,,,,,,
1508183990.550440,0.043853,-0.011898,-3.111371,-0.003559,0.005531,0.041407,0.043836,0.011898,-0.998968,-0.004651,-0.002910,-0.003550,14.587775,26.134218,-46.763783,,,,,,,
1508183990.570467,0.044075,-0.011872,-3.110699,-0.003654,0.024729,0.029399,0.044058,0.011872,-0.998958,-0.006216,-0.003449,-0.007206,14.602777,26.125090,-46.764198,,,,,,,
1508183990.590474,0.044697,-0.011708,-3.110122,0.004911,0.025788,0.031510,0.044679,0.011708,-0.998933,0.003386,-0.002125,-0.010100,14.653673,26.108067,-46.757786,,,,,,,
1508183990.610456,0.045261,-0.011216,-3.109410,0.020993,0.023639,0.038993,0.045243,0.011216,-0.998913,-0.000138,-0.003907,-0.002216,14.691031,26.089327,-46.756523,,,,,,,
1508183990.630487,0.045573,-0.010742,-3.108592,0.012459,0.017245,0.041225,0.045555,0.010741,-0.998904,-0.004249,-0.004577,0.006015,14.722479,26.062355,-46.761673,,,,,,,
1508183990.650494,0.045508,-0.010538,-3.107911,-0.015377,0.010880,0.030676,0.045489,0.010538,-0.998909,-0.007449,-0.005869,0.012627,14.763008,26.023569,-46.770496,,,,,,,
1508183990.670485,0.045404,-0.010696,-3.107193,-0.011068,0.006513,0.038295,0.045385,0.010696,-0.998912,-0.008017,-0.001464,-0.000279,14.762666,26.019035,-46.773125,,,,,,,
1508183990.690507,0.045075,-0.010548,-3.106553,0.007082,0.010784,0.029689,0.045058,0.010548,-0.998929,-0.013274,-0.003514,-0.002872,14.777588,26.013435,-46.771526,,,,,,,
1508183990.710513,0.044719,-0.010222,-3.105983,0.011381,-0.000926,0.024524,0.044702,0.010222,-0.998948,-0.009882,-0.000334,0.001344,14.782029,25.984484,-46.786217,,,,,,,
1508183990.730513,0.044283,-0.010266,-3.105776,0.003775,0.011903,0.000885,0.044266,0.010266,-0.998967,-0.013276,0.004810,0.002812,14.775305,25.979656,-46.791019,,,,,,,
1508183990.750528,0.044674,-0.010397,-3.105819,-0.001646,0.035339,0.000549,0.044657,0.010397,-0.998948,-0.002542,0.002558,-0.006148,14.762617,25.982635,-46.793373,,,,,,,
1508183990.770532,0.045199,-0.010479,-3.105609,0.014565,0.003338,0.021261,0.045181,0.010478,-0.998924,0.002884,0.005833,-0.006279,14.801044,25.986607,-46.779026,,,,,,,
1508183990.790541,0.044598,-0.009932,-3.105022,0.041420,-0.022254,0.030142,0.044581,0.009932,-0.998956,-0.011714,0.002626,0.002832,14.806952,25.987083,-46.776890,,,,,,,
1508183990.810538,0.043692,-0.009315,-3.104679,0.007032,0.001233,0.006369,0.043676,0.009315,-0.999002,-0.020376,-0.004478,0.016062,14.778063,25.931555,-46.816822,,,,,,,
1508183990.830554,0.043303,-0.009381,-3.104979,-0.010256,0.022603,-0.025917,0.043288,0.009381,-0.999019,-0.016127,-0.000973,0.013606,14.748327,25.923437,-46.830692,,,,,,,
1508183990.850537,0.043248,-0.009429,-3.105582,-0.010230,0.013016,-0.026844,0.043233,0.009429,-0.999021,-0.007695,-0.004164,0.010999,14.725210,25.932369,-46.833023,,,,,,,
1508183990.870568,0.042855,-0.009527,-3.105936,-0.005799,-0.024294,-0.014577,0.042840,0.009527,-0.999036,-0.004998,-0.001058,0.006010,14.708150,25.941244,-46.833469,,,,,,,
1508183990.890574,0.042051,-0.009572,-3.106294,0.005930,-0.021084,-0.024229,0.042037,0.009572,-0.999070,-0.010268,0.001186,0.003160,14.660819,25.951227,-46.842781,,,,,,,
1508183990.910566,0.041657,-0.009644,-3.106984,-0.014507,-0.002938,-0.040472,0.041643,0.009644,-0.999086,-0.003450,-0.002060,-0.004057,14.622395,25.954561,-46.852940,,,,,,,
1508183990.930588,0.041502,-0.009881,-3.107855,-0.011329,0.006650,-0.041679,0.041488,0.009881,-0.999090,-0.003433,-0.001352,-0.005060,14.589537,25.976534,-46.851009,,,,,,,
1508183990.950578,0.041307,-0.009859,-3.108492,0.021949,-0.012564,-0.026498,0.041293,0.009859,-0.999098,-0.004595,0.003096,-0.007219,14.562907,25.994678,-46.849228,,,,,,,
1508183990.970587,0.039483,-0.008930,-3.108869,0.032814,-0.053078,-0.013123,0.039471,0.008930,-0.999181,-0.037502,-0.010517,-0.007487,14.518074,25.978518,-46.872105,,,,,,,
1508183990.990608,0.035461,-0.007714,-3.109784,0.041169,-0.051905,-0.076058,0.035452,0.007714,-0.999342,-0.082068,-0.010338,-0.006121,14.363737,25.928392,-46.947350,,,,,,,
1508183991.010614,0.035130,-0.007165,-3.112431,0.027919,-0.001674,-0.156749,0.035121,0.007165,-0.999357,-0.096050,-0.019067,-0.010301,14.184843,25.911257,-47.011158,,,,,,,
1508183991.030622,0.035038,-0.006599,-3.116560,0.040510,-0.002587,-0.234585,0.035030,0.006599,-0.999364,-0.092510,-0.003441,-0.023234,14.164131,25.915804,-47.014893,,,,,,,
1508183991.050628,0.034986,-0.005802,-3.121792,0.055373,-0.002519,-0.270851,0.034978,0.005802,-0.999371,-0.093130,0.003003,-0.024936,13.988997,25.954655,-47.045891,,,,,,,
1508183991.070634,0.034704,-0.004507,-3.127497,0.086423,-0.024867,-0.285479,0.034697,0.004507,-0.999388,-0.086958,0.019724,-0.024080,13.802936,25.975636,-47.089249,,,,,,,
1508183991.090557,0.033557,-0.002787,-3.133188,0.099442,-0.076018,-0.277283,0.033550,0.002787,-0.999433,-0.106564,0.018956,-0.006197,13.759985,25.974957,-47.102188,,,,,,,
1508183991.110579,0.031216,-0.000734,-3.139199,0.120897,-0.135601,-0.314822,0.031211,0.000734,-0.999513,-0.142722,0.025374,0.020646,13.438544,25.950163,-47.208542,,,,,,,
1508183991.130584,0.028469,0.001110,3.137107,0.080098,-0.141887,-0.362683,0.028465,-0.001110,-0.999594,-0.167335,0.005962,0.046042,13.070264,25.923468,-47.326458,,,,,,,
1508183991.150565,0.024935,0.001774,3.129046,0.023334,-0.195006,-0.426915,0.024933,-0.001774,-0.999688,-0.149963,0.007497,0.050438,12.989635,25.928143,-47.346096,,,,,,,
1508183991.170571,0.018474,0.001172,3.119724,-0.020634,-0.221533,-0.479812,0.018473,-0.001172,-0.999829,-0.131617,0.014111,0.049298,12.395963,26.045441,-47.440773,,,,,,,
1508183991.190585,0.013436,0.000170,3.110281,-0.054637,-0.291849,-0.470236,0.013435,-0.000170,-0.999910,-0.086617,0.018160,0.026674,11.706227,26.235394,-47.511261,,,,,,,
1508183991.210588,0.005279,-0.002033,3.100543,-0.083334,-0.384476,-0.493396,0.005279,0.002033,-0.999984,-0.057372,0.036267,0.019561,11.575106,26.275761,-47.521080,,,,,,,
1508183991.230618,-0.002922,-0.003844,3.090835,-0.091755,-0.420712,-0.483268,-0.002922,0.003844,-0.999988,-0.014076,0.043794,0.030857,10.610650,26.581129,-47.576355,,,,,,,
1508183991.250624,-0.011091,-0.006347,3.081392,-0.160110,-0.433531,-0.455307,-0.011091,0.006347,-0.999918,0.048627,-0.001998,0.022257,9.785533,26.831188,-47.612843,,,,,,,
1508183991.270603,-0.020408,-0.010219,3.072650,-0.216625,-0.470854,-0.428065,-0.020405,0.010219,-0.999740,0.105976,0.000234,-0.007600,9.310461,27.021729,-47.600349,,,,,,,
1508183991.290619,-0.029522,-0.014114,3.064657,-0.185468,-0.442229,-0.363460,-0.029515,0.014113,-0.999465,0.158894,0.022462,-0.034410,8.639837,27.301584,-47.567093,,,,,,,
1508183991.310644,-0.038370,-0.016760,3.058703,-0.115544,-0.442475,-0.249414,-0.038355,0.016759,-0.999124,0.233850,0.009639,-0.050513,37.324722,28.359381,-26.016996,,,,,,,
1508183991.330631,-0.047680,-0.018546,3.054998,-0.096945,-0.457617,-0.137247,-0.047653,0.018545,-0.998692,0.260056,-0.015523,-0.046123,37.051689,28.524734,-26.225664,,,,,,,
1508183991.350658,-0.055740,-0.020374,3.053087,-0.091703,-0.350158,-0.072699,-0.055699,0.020372,-0.998240,0.229878,-0.011858,-0.035543,36.742661,28.669920,-26.500679,,,,,,,
1508183991.370664,-0.061604,-0.021578,3.052221,-0.037201,-0.271495,-0.024738,-0.061551,0.021576,-0.997871,0.231457,-0.009644,-0.046242,36.482346,28.776817,-26.743355,,,,,,,
1508183991.390653,-0.065592,-0.022207,3.052290,-0.013784,-0.172537,0.027125,-0.065528,0.022206,-0.997604,0.196678,-0.016117,-0.033860,36.380150,28.799854,-26.857521,,,,,,,
1508183991.410679,-0.068097,-0.022172,3.053218,0.004238,-0.087374,0.052534,-0.068028,0.022170,-0.997437,0.154774,-0.020263,-0.009384,36.309513,28.783457,-26.970451,,,,,,,
1508183991.430686,-0.068493,-0.022083,3.054103,0.009249,0.010657,0.037246,-0.068423,0.022081,-0.997412,0.111651,-0.018052,0.000128,36.304100,28.735085,-27.029257,,,,,,,
1508183991.450687,-0.067732,-0.021740,3.054764,0.026220,0.049023,0.026014,-0.067665,0.021739,-0.997471,0.090171,-0.018305,0.003376,36.310890,28.727070,-27.028652,,,,,,,
1508183991.470698,-0.066243,-0.021184,3.055076,0.032471,0.090595,0.011545,-0.066180,0.021182,-0.997583,0.057162,-0.019168,0.001001,36.370960,28.680414,-26.997417,,,,,,,
1508183991.490705,-0.063914,-0.020530,3.055337,0.032348,0.126822,0.006754,-0.063857,0.020529,-0.997748,0.042769,-0.010931,0.001013,36.430466,28.653980,-26.945204,,,,,,,
1508183991.510692,-0.060875,-0.019901,3.055355,0.031107,0.174777,-0.002471,-0.060825,0.019900,-0.997950,0.029178,0.006346,0.002604,36.466030,28.642052,-26.909748,,,,,,,
1508183991.530701,-0.056996,-0.019134,3.055553,0.038602,0.193911,0.016440,-0.056955,0.019133,-0.998193,0.035791,0.006853,0.002206,36.599033,28.615467,-26.757038,,,,,,,
1508183991.550720,-0.053583,-0.018516,3.056277,0.028093,0.156581,0.041514,-0.053548,0.018515,-0.998394,0.033391,0.007273,0.006877,36.738575,28.568134,-26.616013,,,,,,,
1508183991.570731,-0.050529,-0.018203,3.057522,0.019659,0.149062,0.073618,-0.050499,0.018202,-0.998558,0.036828,0.001985,0.011879,36.765343,28.556765,-26.591240,,,,,,,
1508183991.590739,-0.047882,-0.017728,3.059405,0.028423,0.119162,0.109233,-0.047856,0.017727,-0.998697,0.062367,-0.011838,0.022134,36.941185,28.463745,-26.446877,,,,,,,
1508183991.610745,-0.045618,-0.017812,3.062308,-0.016322,0.106292,0.158503,-0.045595,0.017811,-0.998801,0.066591,-0.014805,0.021186,37.106995,28.336260,-26.351484,,,,,,,
1508183991.630741,-0.040863,-0.018010,3.065574,-0.021691,0.116954,0.161552,-0.040845,0.018010,-0.999003,0.061612,-0.003819,-0.003072,37.143452,28.308977,-26.329433,,,,,,,
1508183991.650760,-0.035692,-0.018187,3.068891,0.009238,0.158492,0.167324,-0.035679,0.018186,-0.999198,0.067432,0.001086,-0.008248,37.499668,28.129740,-26.014730,,,,,,,
1508183991.670764,-0.032048,-0.018185,3.072353,-0.002588,0.188301,0.177564,-0.032037,0.018184,-0.999321,0.097238,-0.007304,-0.001915,37.726105,27.965216,-25.864285,,,,,,,
1508183991.690766,-0.024075,-0.018374,3.076648,-0.020605,0.196728,0.238234,-0.024069,0.018373,-0.999541,0.110601,-0.000948,-0.011155,37.351322,29.451864,-31.441538,,,,,,,
1508183991.710779,-0.020071,-0.018600,3.082122,0.007387,0.198743,0.292565,-0.020066,0.018599,-0.999626,0.111283,0.020647,-0.009759,37.617672,29.278931,-31.285118,,,,,,,
1508183991.730785,-0.011663,-0.019250,3.088653,0.028854,0.221047,0.334878,-0.011660,0.019248,-0.999747,0.111636,0.030816,0.022559,38.127655,29.006786,-30.919115,,,,,,,
1508183991.750787,-0.006996,-0.019407,3.095811,-0.024499,0.224158,0.383923,-0.006995,0.019405,-0.999787,0.137702,0.005741,0.035386,38.379517,28.803896,-30.796947,,,,,,,
1508183991.770778,-0.003111,-0.020416,3.105209,-0.054899,0.158916,0.519246,-0.003110,0.020415,-0.999787,0.120756,-0.001646,0.019822,38.742992,28.511028,-30.613811,,,,,,,
1508183991.790807,-0.000027,-0.021201,3.116553,-0.021470,0.138546,0.580295,-0.000027,0.021200,-0.999775,0.054531,0.018473,0.013188,39.240601,28.021841,-30.431166,,,,,,,
1508183991.810794,0.004139,-0.022016,3.127612,-0.033542,0.189775,0.534777,0.004138,0.022014,-0.999749,0.007184,-0.000377,0.026071,39.564423,27.705114,-30.301594,,,,,,,
1508183991.830819,0.008976,-0.023174,3.138012,-0.066943,0.239899,0.509550,0.008973,0.023172,-0.999691,-0.035264,0.011023,0.008785,39.978607,27.306562,-30.119198,,,,,,,
1508183991.850827,0.013778,-0.024034,-3.135415,-0.039179,0.218662,0.472516,0.013774,0.024032,-0.999616,-0.075816,0.010926,0.003614,40.493744,26.846115,-29.843706,,,,,,,
1508183991.870816,0.018186,-0.024681,-3.126681,-0.048995,0.211335,0.408652,0.018179,0.024678,-0.999530,-0.125052,0.003047,0.019382,40.772800,26.582329,-29.699535,,,,,,,
1508183991.890839,0.023339,-0.025920,-3.119920,-0.079498,0.273348,0.297946,0.023329,0.025917,-0.999392,-0.149321,0.003151,0.023836,41.110802,26.292307,-29.491022,,,,,,,
1508183991.910846,0.028526,-0.027646,-3.114373,-0.098707,0.220155,0.265677,0.028511,0.027642,-0.999211,-0.119667,-0.010369,-0.011928,41.348160,26.141624,-29.292471,,,,,,,
1508183991.930852,0.032247,-0.029347,-3.109416,-0.081538,0.163767,0.229161,0.032228,0.029342,-0.999050,-0.142015,0.011719,-0.033924,41.738522,25.900312,-28.951221,,,,,,,
1508183991.950843,0.035786,-0.030420,-3.105487,-0.045381,0.177719,0.172418,0.035762,0.030415,-0.998897,-0.137554,0.019328,-0.034702,41.894077,25.796984,-28.818495,,,,,,,
1508183991.970840,0.039266,-0.030780,-3.102418,-0.013286,0.150069,0.145071,0.039238,0.030776,-0.998756,-0.111320,0.001771,-0.037987,42.037769,25.707022,-28.689350,,,,,,,
1508183991.990873,0.041500,-0.030794,-3.099910,-0.007888,0.092621,0.107513,0.041468,0.030789,-0.998665,-0.112681,-0.008679,-0.020362,42.264854,25.540430,-28.503906,,,,,,,
1508183992.010880,0.043505,-0.030820,-3.098280,0.000522,0.099091,0.066893,0.043471,0.030816,-0.998579,-0.109603,-0.002556,-0.017275,42.342407,25.482357,-28.440706,,,,,,,
1508183992.030886,0.041016,-0.030370,-3.097348,0.009108,0.068215,0.046008,0.040986,0.030366,-0.998698,-0.084229,-0.007966,-0.002965,42.308460,25.424267,-28.543032,,,,,,,
1508183992.050894,0.041985,-0.030189,-3.096743,0.002681,0.039512,0.017639,0.041953,0.030185,-0.998663,-0.083427,-0.001620,0.010398,42.366699,25.381603,-28.494570,,,,,,,
1508183992.070900,0.039282,-0.030015,-3.096783,-0.016561,0.009716,-0.004307,0.039255,0.030011,-0.998778,-0.056604,-0.012967,0.006087,42.302010,25.361944,-28.607954,,,,,,,
1508183992.090905,0.038930,-0.030421,-3.097070,-0.023991,-0.028598,-0.020807,0.038903,0.030417,-0.998780,-0.040032,-0.013098,-0.002532,42.295269,25.383045,-28.599205,,,,,,,
1508183992.110914,0.037316,-0.031070,-3.097626,-0.035895,0.006568,-0.029838,0.037290,0.031065,-0.998821,-0.031415,-0.001295,-0.001270,42.230934,25.421906,-28.659706,,,,,,,
1508183992.130920,0.037284,-0.031552,-3.098455,-0.012355,-0.014703,-0.049807,0.037257,0.031547,-0.998808,-0.006800,0.006111,-0.006731,42.221188,25.456972,-28.642927,,,,,,,
1508183992.150926,0.036852,-0.031439,-3.099192,-0.001492,-0.047765,-0.030142,0.036825,0.031434,-0.998827,0.007899,-0.004853,-0.004713,42.176800,25.509331,-28.661741,,,,,,,
1508183992.170925,0.035957,-0.031748,-3.099780,-0.025082,-0.032843,-0.031407,0.035931,0.031743,-0.998850,0.005969,-0.003819,0.000712,42.154099,25.523348,-28.682648,,,,,,,
1508183992.190940,0.035679,-0.032446,-3.100427,-0.032675,-0.000879,-0.033998,0.035653,0.032440,-0.998838,0.004371,0.006409,-0.000277,42.120735,25.565641,-28.693995,,,,,,,
1508183992.210947,0.035304,-0.032560,-3.101079,0.012381,-0.033922,-0.029287,0.035278,0.032554,-0.998847,0.018845,0.001305,-0.005425,42.092751,25.615704,-28.690413,,,,,,,
1508183992.230938,0.034237,-0.032300,-3.101546,0.011391,-0.056301,-0.024697,0.034213,0.032294,-0.998893,0.001020,-0.014655,-0.008447,42.064438,25.625296,-28.723352,,,,,,,
1508183992.250947,0.032669,-0.032303,-3.102487,0.014351,-0.004052,-0.054247,0.032646,0.032297,-0.998945,-0.021614,0.004141,-0.008806,42.019863,25.645161,-28.770824,,,,,,,
1508183992.270967,0.030258,-0.031778,-3.103595,0.041156,-0.012612,-0.045613,0.030238,0.031773,-0.999038,-0.031001,-0.001438,-0.016420,41.934750,25.683834,-28.860373,,,,,,,
1508183992.290958,0.027233,-0.030360,-3.104662,0.072326,-0.073323,-0.058618,0.027217,0.030355,-0.999169,-0.093623,-0.009451,-0.003898,41.782246,25.698799,-29.067497,,,,,,,
1508183992.310982,0.025994,-0.029179,-3.106544,0.049576,-0.038057,-0.112428,0.025980,0.029175,-0.999237,-0.103449,-0.010102,0.000366,41.722858,25.713446,-29.139753,,,,,,,
1508183992.330969,0.025418,-0.028541,-3.109578,0.025802,-0.027275,-0.174412,0.025405,0.028537,-0.999270,-0.113464,-0.007404,-0.011854,41.661896,25.761583,-29.184427,,,,,,,
1508183992.350993,0.024394,-0.027937,-3.113726,0.047113,-0.058060,-0.230495,0.024382,0.027933,-0.999312,-0.131178,-0.003214,-0.018113,41.529545,25.918114,-29.234432,,,,,,,
1508183992.370972,0.023017,-0.026609,-3.119310,0.083290,-0.065428,-0.301780,0.023007,0.026606,-0.999381,-0.124798,0.013707,-0.002908,41.370991,26.086407,-29.309454,,,,,,,
1508183992.391007,0.021114,-0.025163,-3.126296,0.066016,-0.095102,-0.375978,0.021106,0.025160,-0.999461,-0.111423,0.011614,0.013560,41.223248,26.236734,-29.383358,,,,,,,
1508183992.411015,0.018851,-0.024530,-3.134419,0.029557,-0.114184,-0.417259,0.018845,0.024528,-0.999521,-0.096939,0.015496,0.013300,40.908607,26.571550,-29.521891,,,,,,,
1508183992.431021,0.015851,-0.024163,3.139876,0.023100,-0.149249,-0.460464,0.015845,0.024161,-0.999583,-0.071128,0.027002,0.015208,40.610977,26.899132,-29.635933,,,,,,,
1508183992.451027,0.012562,-0.024200,3.130410,-0.011161,-0.156672,-0.473126,0.012558,0.024198,-0.999628,-0.042191,0.015536,0.021998,40.183716,27.357777,-29.798059,,,,,,,
1508183992.471012,0.007972,-0.025472,3.121072,-0.015236,-0.216348,-0.462661,0.007969,0.025469,-0.999644,-0.012379,0.018110,0.009532,39.915710,27.648098,-29.890167,,,,,,,
1508183992.491042,0.002599,-0.025707,3.111676,-0.008717,-0.266385,-0.477935,0.002598,0.025704,-0.999666,-0.015293,0.014320,0.014971,39.502396,28.049551,-30.064714,,,,,,,
1508183992.511049,-0.002241,-0.026350,3.101585,-0.034694,-0.211969,-0.519224,-0.002240,0.026347,-0.999650,0.003735,0.007054,0.028215,38.967484,28.539476,-30.300776,,,,,,,
1508183992.531040,-0.006586,-0.027706,3.091397,-0.093435,-0.219466,-0.491347,-0.006583,0.027703,-0.999595,0.054923,-0.011513,0.020438,38.654396,28.870375,-30.388195,,,,,,,
1508183992.551062,-0.012281,-0.029792,3.082395,-0.109071,-0.290958,-0.428453,-0.012275,0.029787,-0.999481,0.069740,0.000975,0.008178,38.232037,29.298971,-30.512058,,,,,,,
1508183992.571067,-0.018450,-0.031119,3.073820,-0.056664,-0.282449,-0.428616,-0.018440,0.031114,-0.999346,0.078590,0.024001,0.005770,37.689323,29.776825,-30.723915,,,,,,,
1508183992.591063,-0.023909,-0.032243,3.065779,-0.076885,-0.259119,-0.373492,-0.023894,0.032238,-0.999195,0.130675,-0.005230,0.004810,37.375957,30.040447,-30.849852,,,,,,,
1508183992.611083,-0.029458,-0.034015,3.059156,-0.105540,-0.266701,-0.307249,-0.029437,0.034008,-0.998988,0.163699,-0.015072,-0.025121,36.994774,30.361156,-30.995005,,,,,,,
1508183992.631088,-0.034166,-0.035734,3.053677,-0.083108,-0.189061,-0.248679,-0.034138,0.035726,-0.998778,0.156056,-0.010747,-0.035844,36.577309,30.708162,-31.148239,,,,,,,
1508183992.651065,-0.037438,-0.036662,3.049603,-0.029451,-0.154081,-0.169254,-0.037404,0.036653,-0.998628,0.179814,-0.006105,-0.051238,36.509605,30.766571,-31.170023,,,,,,,
1508183992.671103,-0.040583,-0.036309,3.047074,0.037062,-0.141442,-0.105509,-0.040545,0.036301,-0.998518,0.161746,0.004501,-0.042711,36.194317,30.999054,-31.307087,,,,,,,
1508183992.691108,-0.042796,-0.034858,3.045748,0.078807,-0.089359,-0.054047,-0.042757,0.034851,-0.998477,0.132937,-0.003692,-0.010174,36.024696,31.039717,-31.462053,,,,,,,
1508183992.711093,-0.038779,-0.032250,3.045200,0.049832,-0.029723,-0.028232,-0.038749,0.032245,-0.998729,0.099540,-0.024463,0.013072,36.002235,31.037046,-31.490383,,,,,,,
1508183992.731110,-0.038992,-0.031371,3.044791,0.046540,0.001164,-0.025479,-0.038963,0.031366,-0.998748,0.082588,-0.024820,0.014129,36.102364,30.976831,-31.434996,,,,,,,
1508183992.751106,-0.038418,-0.030529,3.044150,0.033564,0.043782,-0.028220,-0.038391,0.030525,-0.998796,0.056030,-0.013847,0.017427,36.084255,30.966974,-31.465483,,,,,,,
1508183992.771122,-0.034883,-0.029912,3.044217,0.031564,0.042649,0.013384,-0.034860,0.029908,-0.998945,0.050821,0.010299,0.020627,36.086777,30.966784,-31.462780,,,,,,,
1508183992.791142,-0.034284,-0.029138,3.044798,0.038102,0.027689,0.035988,-0.034263,0.029134,-0.998988,0.032539,0.003169,0.025035,36.215652,30.925129,-31.355492,,,,,,,
1508183992.811148,-0.032422,-0.028649,3.045724,-0.003632,0.042593,0.048599,-0.032403,0.028645,-0.999064,0.016534,-0.009205,0.026210,36.305874,30.859806,-31.315483,,,,,,,
1508183992.831136,-0.031861,-0.028711,3.046935,0.005084,0.010597,0.067184,-0.031842,0.028707,-0.999081,0.020246,0.002589,0.016140,36.348541,30.832954,-31.292431,,,,,,,
1508183992.851163,-0.031557,-0.028753,3.048268,-0.009966,0.027655,0.061616,-0.031539,0.028749,-0.999089,-0.001283,-0.003206,0.018574,36.397243,30.781363,-31.286612,,,,,,,
1508183992.871168,-0.030686,-0.029414,3.049274,-0.038957,0.043673,0.045411,-0.030668,0.029410,-0.999097,0.007765,-0.007101,0.011563,36.467270,30.744156,-31.241617,,,,,,,
1508183992.891147,-0.028884,-0.030085,3.049964,-0.026207,0.056490,0.029221,-0.028867,0.030080,-0.999131,0.023176,0.000544,-0.000183,36.532974,30.738420,-31.170418,,,,,,,
1508183992.911165,-0.027221,-0.030583,3.050495,-0.023121,0.098034,0.028617,-0.027205,0.030578,-0.999162,0.043822,-0.001663,-0.001128,36.588589,30.734585,-31.108904,,,,,,,
1508183992.931188,-0.022664,-0.030897,3.051430,-0.010168,0.087344,0.053287,-0.022651,0.030892,-0.999266,0.067009,-0.000787,-0.009798,36.773930,30.714117,-30.909948,,,,,,,
1508183992.951185,-0.020913,-0.031164,3.052945,-0.011117,0.087270,0.090609,-0.020901,0.031159,-0.999296,0.086056,-0.004365,-0.005129,36.841743,30.685507,-30.857565,,,,,,,
1508183992.971202,-0.014508,-0.031519,3.055447,-0.026017,0.109578,0.135082,-0.014500,0.031514,-0.999398,0.100117,0.001094,-0.000571,37.093201,30.614363,-30.626112,,,,,,,
1508183992.991209,-0.012037,-0.031862,3.058699,-0.005582,0.123332,0.179652,-0.012031,0.031857,-0.999420,0.107139,0.014072,-0.002564,37.291214,30.494390,-30.505098,,,,,,,
1508183993.011204,-0.009363,-0.031615,3.062889,0.021289,0.132821,0.225345,-0.009358,0.031610,-0.999456,0.099172,0.006873,0.003607,37.337418,30.461710,-30.481228,,,,,,,
1508183993.031222,-0.006169,-0.031280,3.067616,0.007331,0.165816,0.240872,-0.006166,0.031275,-0.999492,0.097718,-0.000284,0.021419,37.656212,30.201118,-30.348076,,,,,,,
1508183993.051229,-0.002227,-0.031958,3.072888,-0.052573,0.200908,0.278795,-0.002226,0.031953,-0.999487,0.102598,-0.007295,0.025045,37.840843,30.061260,-30.257147,,,,,,,
1508183993.071210,0.002079,-0.033099,3.079119,-0.056682,0.205057,0.335252,0.002078,0.033093,-0.999450,0.099286,0.010516,0.012390,38.277603,29.779070,-29.985596,,,,,,,
1508183993.091243,0.006385,-0.033836,3.086479,-0.022279,0.200696,0.381140,0.006381,0.033829,-0.999407,0.082456,0.017440,0.006258,38.525494,29.600502,-29.844601,,,,,,,
1508183993.111220,0.014126,-0.034544,3.094529,-0.012549,0.194270,0.406817,0.014118,0.034537,-0.999304,0.056378,-0.007972,0.003881,38.889477,29.401653,-29.567804,,,,,,,
1508183993.131229,0.020831,-0.034143,3.102710,-0.021131,0.192176,0.397258,0.020817,0.034136,-0.999200,0.014797,-0.006442,0.009332,39.153648,29.173479,-29.444925,,,,,,,
1508183993.151263,0.025694,-0.034882,3.110459,-0.065258,0.264648,0.384511,0.025676,0.034875,-0.999062,-0.014628,-0.008416,0.018852,39.751579,28.699089,-29.108044,,,,,,,
1508183993.171269,0.030388,-0.036092,3.118381,-0.076929,0.243319,0.395492,0.030364,0.036084,-0.998887,-0.022383,-0.004605,-0.009749,40.907608,26.977423,-21.380753,,,,,,,
1508183993.191275,0.034843,-0.036465,3.126197,0.000202,0.204968,0.387460,0.034813,0.036457,-0.998729,-0.063087,0.010021,-0.018300,40.966885,26.901302,-21.363159,,,,,,,
1508183993.211284,0.039570,-0.035728,3.133478,0.022409,0.240214,0.337882,0.039534,0.035720,-0.998580,-0.102294,0.006562,-0.000947,41.410141,26.432112,-21.092516,,,,,,,
1508183993.231289,0.044884,-0.035948,3.139298,-0.052751,0.257403,0.274777,0.044840,0.035941,-0.998347,-0.091883,-0.006567,0.007640,41.747047,26.101954,-20.837999,,,,,,,
1508183993.251286,0.049699,-0.036892,-3.138172,-0.048259,0.203043,0.290491,0.049645,0.036884,-0.998086,-0.082863,0.015591,-0.016731,41.933128,25.947327,-20.656698,,,,,,,
1508183993.271303,0.052753,-0.036674,-3.132284,0.019439,0.109281,0.292866,0.052693,0.036666,-0.997937,-0.103322,0.014222,-0.026187,42.161430,25.717855,-20.478176,,,,,,,
1508183993.291311,0.054920,-0.036110,-3.126834,0.002233,0.099768,0.257829,0.054856,0.036102,-0.997841,-0.140489,-0.004943,0.000817,42.397808,25.409075,-20.375355,,,,,,,
1508183993.311302,0.057352,-0.036558,-3.122818,-0.057002,0.126600,0.164716,0.057282,0.036549,-0.997689,-0.150055,0.002681,0.006203,42.518684,25.262821,-20.305204,,,,,,,
1508183993.331323,0.059870,-0.037493,-3.120084,-0.038886,0.102186,0.119205,0.059792,0.037484,-0.997507,-0.138985,0.011115,-0.027899,42.650299,25.150124,-20.168615,,,,,,,
1508183993.351331,0.061058,-0.037264,-3.118063,0.027565,0.034052,0.090287,0.060978,0.037255,-0.997444,-0.126514,0.017783,-0.032204,42.762249,25.039761,-20.068642,,,,,,,
1508183993.371323,0.055591,-0.036954,-3.116821,0.040343,0.021254,0.058537,0.055524,0.036946,-0.997774,-0.119733,0.018886,-0.012496,42.676239,24.996038,-20.304842,,,,,,,
1508183993.391343,0.056332,-0.036597,-3.116388,-0.008040,0.042673,0.007080,0.056264,0.036588,-0.997745,-0.109991,0.021151,0.004291,42.705185,24.946375,-20.305069,,,,,,,
1508183993.411350,0.054173,-0.037691,-3.116465,-0.061479,0.008607,-0.004115,0.054108,0.037682,-0.997824,-0.054535,0.001990,0.003073,42.733677,24.947018,-20.244236,,,,,,,
1508183993.431340,0.053610,-0.038468,-3.116597,-0.013204,-0.040392,-0.010905,0.053545,0.038458,-0.997825,-0.046297,0.021768,-0.003091,42.665634,24.980474,-20.346252,,,,,,,
1508183993.451365,0.051097,-0.038571,-3.116962,0.014577,-0.034004,-0.017417,0.051037,0.038561,-0.997952,-0.036098,0.006727,0.003872,42.649361,24.987497,-20.371731,,,,,,,
1508183993.471369,0.050285,-0.038852,-3.117477,-0.029292,-0.045692,-0.026811,0.050226,0.038842,-0.997982,-0.012919,-0.003853,0.007092,42.593502,25.006054,-20.465601,,,,,,,
1508183993.491377,0.049149,-0.039768,-3.117981,-0.050682,-0.056326,-0.033038,0.049090,0.039758,-0.998003,0.002179,0.010627,0.000658,42.543797,25.058697,-20.504568,,,,,,,
1508183993.511384,0.048199,-0.040793,-3.118607,-0.044299,-0.041418,-0.031127,0.048141,0.040782,-0.998008,0.005540,0.011571,-0.000650,42.514671,25.096659,-20.518539,,,,,,,
1508183993.531390,0.047035,-0.041291,-3.119112,-0.009967,-0.068065,-0.027567,0.046978,0.041279,-0.998043,0.007771,0.007747,-0.006901,42.490025,25.129686,-20.529171,,,,,,,
1508183993.551398,0.045371,-0.041221,-3.119461,0.005143,-0.091540,-0.009111,0.045317,0.041210,-0.998122,0.005022,-0.007976,-0.007554,42.461224,25.152126,-20.561258,,,,,,,
1508183993.571404,0.043752,-0.041201,-3.119739,-0.004583,-0.071277,-0.020061,0.043701,0.041189,-0.998195,-0.016906,-0.009177,-0.005207,42.398190,25.168056,-20.671537,,,,,,,
1508183993.591411,0.042484,-0.041398,-3.120290,-0.004630,-0.064868,-0.028684,0.042435,0.041386,-0.998242,-0.034073,-0.012410,-0.007694,42.348862,25.196730,-20.737621,,,,,,,
1508183993.611418,0.038439,-0.040417,-3.121281,0.040299,-0.093589,-0.060291,0.038399,0.040406,-0.998445,-0.065590,-0.011872,-0.018706,42.264160,25.206375,-20.898073,,,,,,,
1508183993.631424,0.036697,-0.039297,-3.123400,0.057104,-0.066817,-0.133200,0.036661,0.039287,-0.998555,-0.110300,-0.023784,-0.017787,42.190647,25.245184,-20.999533,,,,,,,
1508183993.651432,0.035843,-0.038795,-3.126929,0.019319,-0.026198,-0.198805,0.035808,0.038785,-0.998606,-0.122829,-0.013501,-0.018347,42.067963,25.378986,-21.084208,,,,,,,
1508183993.671420,0.035038,-0.038200,-3.131455,0.066319,-0.039981,-0.237027,0.035006,0.038191,-0.998657,-0.144411,0.020342,-0.035599,41.979298,25.505421,-21.108349,,,,,,,
1508183993.691445,0.034062,-0.035930,-3.137111,0.148428,-0.031320,-0.317187,0.034033,0.035922,-0.998775,-0.171698,0.023084,-0.001835,41.837460,25.676392,-21.182549,,,,,,,
1508183993.711432,0.033073,-0.033692,3.138798,0.091610,-0.049317,-0.365933,0.033048,0.033686,-0.998886,-0.128644,-0.029963,0.035599,41.603485,25.952974,-21.305944,,,,,,,
1508183993.731449,0.030514,-0.033283,3.131940,0.011813,-0.159098,-0.324828,0.030492,0.033276,-0.998981,-0.087438,-0.028622,0.019916,41.439816,26.155203,-21.377497,,,,,,,
1508183993.751467,0.025854,-0.032625,3.125301,0.064365,-0.222982,-0.346334,0.025837,0.032619,-0.999134,-0.088291,0.005620,0.002735,41.191463,26.416080,-21.536119,,,,,,,
1508183993.771472,0.021744,-0.031558,3.118300,0.052429,-0.177156,-0.355520,0.021731,0.031553,-0.999266,-0.067309,-0.010236,0.016920,40.848156,26.734961,-21.794958,,,,,,,
1508183993.791477,0.017225,-0.030545,3.110989,-0.012756,-0.215472,-0.364512,0.017216,0.030540,-0.999385,-0.007130,-0.016029,0.007656,40.573357,27.015984,-21.961094,,,,,,,
1508183993.811486,0.011967,-0.031510,3.104005,-0.045641,-0.285818,-0.340008,0.011961,0.031505,-0.999432,-0.000196,-0.007259,-0.013599,40.342930,27.225563,-22.126162,,,,,,,
1508183993.831491,0.006065,-0.032078,3.096717,-0.007320,-0.260185,-0.378796,0.006062,0.032072,-0.999467,0.021083,0.035356,-0.007094,40.107933,27.448311,-22.277660,,,,,,,
1508183993.851498,0.001415,-0.031951,3.088929,0.007444,-0.197321,-0.388249,0.001414,0.031945,-0.999489,0.091817,0.013343,-0.001412,39.622368,27.906246,-22.575638,,,,,,,
1508183993.871505,-0.003012,-0.032050,3.082170,-0.003932,-0.239029,-0.304464,-0.003011,0.032045,-0.999482,0.119145,0.012816,-0.021957,39.400425,28.125929,-22.691168,,,,,,,
1508183993.891494,-0.008893,-0.031877,3.076340,0.019821,-0.294457,-0.289816,-0.008889,0.031872,-0.999452,0.139290,0.030674,-0.023329,39.187672,28.309164,-22.831289,,,,,,,
1508183993.911518,-0.014248,-0.031018,3.071077,0.036930,-0.231719,-0.236357,-0.014241,0.031013,-0.999417,0.153859,-0.006416,0.006269,38.754829,28.620348,-23.179491,,,,,,,
1508183993.931509,-0.018349,-0.030730,3.067595,-0.001361,-0.191447,-0.128150,-0.018340,0.030725,-0.999360,0.169707,-0.006280,0.000596,38.586887,28.736069,-23.316099,,,,,,,
1508183993.951532,-0.022491,-0.030541,3.065826,0.015955,-0.202204,-0.077891,-0.022479,0.030536,-0.999281,0.165988,0.013806,-0.006884,38.462517,28.811222,-23.428589,,,,,,,
1508183993.971539,-0.025512,-0.030197,3.064703,0.016912,-0.114944,-0.033306,-0.025497,0.030192,-0.999219,0.135696,0.005483,0.005277,38.269131,28.886871,-23.651062,,,,,,,
1508183993.991545,-0.027805,-0.029484,3.064813,0.051360,-0.135282,0.011748,-0.027789,0.029480,-0.999179,0.140765,0.007721,-0.007459,38.225796,28.886465,-23.721527,,,,,,,
1508183994.011552,-0.030086,-0.028424,3.065153,0.044864,-0.089512,0.030282,-0.030069,0.028420,-0.999144,0.102076,-0.003793,0.001249,38.159454,28.844645,-23.878700,,,,,,,
1508183994.031559,-0.030935,-0.027802,3.065674,0.026388,-0.011711,0.013173,-0.030918,0.027799,-0.999135,0.075611,0.019778,0.015493,38.146439,28.804771,-23.947538,,,,,,,
1508183994.051565,-0.030408,-0.027421,3.065832,0.017618,0.051154,0.005870,-0.030392,0.027417,-0.999162,0.049771,0.015796,0.025972,38.151840,28.790920,-23.955589,,,,,,,
1508183994.071573,-0.028995,-0.026904,3.066039,0.030419,0.070315,0.010914,-0.028981,0.026900,-0.999218,0.043065,0.006486,0.024639,38.192852,28.770164,-23.915138,,,,,,,
1508183994.091563,-0.027895,-0.026650,3.066115,-0.002750,0.057562,0.000461,-0.027882,0.026647,-0.999256,0.035099,-0.007421,0.018879,38.217934,28.756323,-23.891708,,,,,,,
1508183994.111586,-0.026436,-0.026731,3.066272,0.004695,0.082044,0.008631,-0.026423,0.026728,-0.999293,0.019175,0.013433,0.011668,38.248749,28.755453,-23.843395,,,,,,,
1508183994.131593,-0.024692,-0.026553,3.066534,0.006860,0.083092,0.017145,-0.024680,0.026550,-0.999343,0.023780,0.004044,0.011657,38.306671,28.741323,-23.767323,,,,,,,
1508183994.151599,-0.023263,-0.026515,3.066945,0.002634,0.064983,0.017410,-0.023253,0.026512,-0.999378,0.010268,-0.006157,0.012638,38.342907,28.728468,-23.724392,,,,,,,
1508183994.171607,-0.021847,-0.026584,3.067077,-0.013514,0.079933,0.001211,-0.021838,0.026581,-0.999408,0.005069,-0.015183,0.009174,38.382847,28.715715,-23.675198,,,,,,,
1508183994.191612,-0.020102,-0.027290,3.067144,-0.040247,0.083118,0.009715,-0.020094,0.027287,-0.999426,0.018140,-0.012944,0.003256,38.411888,28.719988,-23.622856,,,,,,,
1508183994.211620,-0.015037,-0.028245,3.067623,-0.004828,0.063923,0.025962,-0.015031,0.028241,-0.999488,0.027665,0.003390,-0.004388,38.523304,28.734985,-23.422337,,,,,,,
1508183994.231627,-0.011622,-0.027815,3.068310,0.003686,0.089480,0.034116,-0.011617,0.027811,-0.999546,0.029745,-0.005534,0.000248,38.602409,28.720819,-23.309195,,,,,,,
1508183994.251632,-0.004869,-0.027454,3.069276,-0.010163,0.086284,0.049102,-0.004867,0.027451,-0.999611,0.046829,-0.002365,-0.004783,38.746914,28.678640,-23.120605,,,,,,,
1508183994.271639,0.002023,-0.028027,3.070633,-0.008023,0.104386,0.065899,0.002022,0.028024,-0.999605,0.054146,0.008445,0.008867,40.327503,29.278830,-31.039558,,,,,,,
1508183994.291630,0.004791,-0.028315,3.072478,-0.018703,0.142655,0.106938,0.004789,0.028312,-0.999588,0.067507,0.007424,0.008011,40.417492,29.237661,-30.961224,,,,,,,
1508183994.311632,0.012311,-0.029526,3.075225,-0.013244,0.150052,0.148412,0.012305,0.029522,-0.999488,0.089211,0.016728,0.018745,40.529900,29.181263,-30.867344,,,,,,,
1508183994.331661,0.015594,-0.030028,3.078810,-0.045234,0.168068,0.199358,0.015587,0.030024,-0.999428,0.118813,0.012945,0.029075,40.946022,29.032681,-30.455521,,,,,,,
1508183994.351666,0.019353,-0.031257,3.083230,-0.073012,0.191440,0.234227,0.019342,0.031252,-0.999324,0.121100,0.017713,0.019298,41.114986,28.929401,-30.325886,,,,,,,
1508183994.371673,0.023490,-0.032330,3.088940,-0.050287,0.192305,0.312091,0.023476,0.032325,-0.999202,0.125053,0.004388,0.000850,41.304146,28.815617,-30.176805,,,,,,,
1508183994.391680,0.027043,-0.033113,3.096108,-0.049956,0.159139,0.384014,0.027025,0.033107,-0.999086,0.091017,0.004307,0.003283,41.744896,28.462399,-29.904303,,,,,,,
1508183994.411687,0.031161,-0.033913,3.104139,-0.056459,0.214483,0.408807,0.031138,0.033907,-0.998940,0.067738,0.005766,0.005196,41.987560,28.238525,-29.776539,,,,,,,
1508183994.431694,0.035754,-0.034535,3.112310,-0.037199,0.212352,0.406691,0.035725,0.034528,-0.998765,0.041164,0.008517,-0.005050,42.253674,28.005674,-29.619614,,,,,,,
1508183994.451699,0.039881,-0.034650,3.120597,-0.031897,0.234707,0.411694,0.039846,0.034643,-0.998605,-0.014608,-0.005209,0.010598,42.787132,27.515692,-29.311430,,,,,,,
1508183994.471707,0.045060,-0.035117,3.128489,-0.054490,0.246484,0.384883,0.045017,0.035110,-0.998369,-0.025303,-0.016616,0.012514,43.040066,27.263308,-29.176651,,,,,,,
1508183994.491714,0.050115,-0.036352,3.136271,-0.088685,0.227324,0.381987,0.050061,0.036344,-0.998085,-0.047986,-0.017407,0.008796,43.305180,27.037128,-28.994259,,,,,,,
1508183994.511699,0.054709,-0.037727,-3.139651,-0.087685,0.212481,0.347014,0.054643,0.037718,-0.997793,-0.073030,0.006517,0.002401,43.802307,26.622704,-28.628683,,,,,,,
1508183994.531729,0.059456,-0.039271,-3.133312,-0.094378,0.243486,0.291122,0.059376,0.039261,-0.997463,-0.073047,0.017456,0.005856,44.026558,26.442739,-28.450930,,,,,,,
1508183994.551733,0.065226,-0.040501,-3.127790,-0.075378,0.292554,0.255208,0.065126,0.040490,-0.997055,-0.053102,0.039131,0.004852,44.246319,26.288074,-28.252653,,,,,,,
1508183994.571740,0.071993,-0.042017,-3.122958,-0.099090,0.330943,0.237608,0.071867,0.042005,-0.996529,-0.044508,0.013659,0.002160,44.699745,26.022869,-27.780479,,,,,,,
1508183994.591748,0.077720,-0.043277,-3.117417,-0.076184,0.240290,0.289022,0.077569,0.043264,-0.996048,-0.059869,0.010356,-0.003876,44.925900,25.892290,-27.536608,,,,,,,
1508183994.611754,0.082114,-0.044037,-3.111653,-0.054662,0.184919,0.275947,0.081942,0.044023,-0.995664,-0.100985,0.020613,-0.002291,45.136692,25.729908,-27.343418,,,,,,,
1508183994.631762,0.085429,-0.044623,-3.106150,-0.044895,0.135920,0.273451,0.085240,0.044608,-0.995361,-0.170033,-0.003867,-0.016815,45.495510,25.399996,-27.055691,,,,,,,
1508183994.651768,0.087752,-0.044808,-3.101470,-0.019365,0.098792,0.192931,0.087551,0.044793,-0.995152,-0.190899,0.001777,-0.021724,45.643929,25.236362,-26.958670,,,,,,,
1508183994.671754,0.089868,-0.044922,-3.098760,-0.023919,0.094709,0.104491,0.089657,0.044907,-0.994960,-0.178066,-0.019623,-0.018910,45.817978,25.055080,-26.832211,,,,,,,
1508183994.691780,0.091479,-0.045842,-3.097421,-0.066861,0.066096,0.035629,0.091256,0.045826,-0.994772,-0.160088,-0.017170,-0.034219,45.903191,25.004063,-26.733973,,,,,,,
1508183994.711762,0.092858,-0.047298,-3.097380,-0.067074,0.070480,-0.026280,0.092621,0.047280,-0.994578,-0.151429,-0.008706,-0.049062,45.936806,25.020329,-26.660925,,,,,,,
1508183994.731787,0.094243,-0.048225,-3.098380,-0.025487,0.072686,-0.068996,0.093994,0.048206,-0.994405,-0.115250,0.006664,-0.048961,45.960819,25.100346,-26.544069,,,,,,,
1508183994.751775,0.094991,-0.048557,-3.100002,-0.001808,0.011988,-0.081995,0.094736,0.048538,-0.994318,-0.069712,-0.005310,-0.043310,45.961800,25.119589,-26.524158,,,,,,,
1508183994.771808,0.094654,-0.048422,-3.101668,0.028209,-0.013573,-0.088045,0.094402,0.048403,-0.994357,-0.041210,0.006086,-0.028058,45.919647,25.234737,-26.487837,,,,,,,
1508183994.791816,0.094637,-0.047929,-3.103352,0.032481,0.006634,-0.072346,0.094387,0.047911,-0.994382,-0.025051,0.000124,-0.011020,45.862865,25.312759,-26.511768,,,,,,,
1508183994.811821,0.094332,-0.047455,-3.104687,0.025128,-0.024285,-0.058031,0.094087,0.047437,-0.994433,0.004211,0.011340,0.001391,45.836433,25.347719,-26.524071,,,,,,,
1508183994.831828,0.093670,-0.047146,-3.105581,0.016682,-0.034986,-0.032278,0.093430,0.047128,-0.994510,-0.000931,0.009802,0.007236,45.795155,25.385260,-26.559444,,,,,,,
1508183994.851835,0.092757,-0.046767,-3.106274,0.024154,-0.039230,-0.041819,0.092523,0.046750,-0.994612,0.001853,0.020739,0.010558,45.747890,25.408781,-26.618349,,,,,,,
1508183994.871830,0.092614,-0.046450,-3.107133,0.014418,0.006559,-0.032879,0.092382,0.046433,-0.994640,-0.010244,0.014206,0.018200,45.721336,25.430239,-26.643467,,,,,,,
1508183994.891849,0.092306,-0.046376,-3.107511,0.002858,-0.033973,-0.004558,0.092076,0.046359,-0.994672,0.004649,0.010083,0.010251,45.706249,25.452225,-26.648357,,,,,,,
1508183994.911855,0.090655,-0.045997,-3.107049,0.027792,-0.101165,0.033718,0.090436,0.045981,-0.994840,-0.028561,0.006540,-0.012637,45.673649,25.436207,-26.719446,,,,,,,
1508183994.931859,0.088708,-0.045104,-3.106780,0.044770,-0.091512,-0.001623,0.088502,0.045088,-0.995055,-0.081040,-0.000045,-0.019334,45.644943,25.400751,-26.802105,,,,,,,
1508183994.951869,0.087478,-0.044347,-3.107564,0.040172,-0.045594,-0.057733,0.087280,0.044333,-0.995197,-0.108917,-0.005911,-0.021359,45.596230,25.384296,-26.900433,,,,,,,
1508183994.971875,0.086733,-0.043733,-3.109484,0.042101,-0.031641,-0.110185,0.086541,0.043719,-0.995289,-0.118035,0.001691,-0.031124,45.523731,25.440294,-26.970226,,,,,,,
1508183994.991855,0.085464,-0.042662,-3.111993,0.079681,-0.087021,-0.121140,0.085282,0.042649,-0.995444,-0.139787,0.003020,-0.038339,45.463806,25.499596,-27.015274,,,,,,,
1508183995.011889,0.082837,-0.040878,-3.114980,0.110752,-0.139154,-0.156661,0.082673,0.040867,-0.995738,-0.150620,0.006405,-0.034199,45.348183,25.568281,-27.144373,,,,,,,
1508183995.031894,0.079771,-0.039052,-3.118852,0.103102,-0.139054,-0.205707,0.079626,0.039042,-0.996060,-0.169287,0.015310,-0.015399,45.143387,25.684307,-27.375225,,,,,,,
1508183995.051883,0.076970,-0.037256,-3.123872,0.115746,-0.135747,-0.263345,0.076840,0.037247,-0.996347,-0.169660,0.018478,-0.014914,45.003677,25.790831,-27.504801,,,,,,,
1508183995.071906,0.073290,-0.035273,-3.130090,0.121040,-0.194195,-0.333943,0.073178,0.035266,-0.996695,-0.177289,0.016935,-0.004632,44.783974,25.968449,-27.695614,,,,,,,
1508183995.091895,0.068848,-0.033686,-3.137956,0.101567,-0.213198,-0.416825,0.068754,0.033679,-0.997065,-0.177641,0.031125,0.003657,44.413551,26.284052,-27.992804,,,,,,,
1508183995.111912,0.064812,-0.032430,3.134988,0.096585,-0.139398,-0.566107,0.064733,0.032425,-0.997376,-0.167821,0.052460,0.030487,44.146011,26.541340,-28.172657,,,,,,,
1508183995.131929,0.062799,-0.031261,3.122076,0.093859,-0.059289,-0.673897,0.062727,0.031256,-0.997541,-0.070951,0.010706,0.052320,43.763306,26.996166,-28.337112,,,,,,,
1508183995.151921,0.060244,-0.030745,3.108816,0.041763,-0.137106,-0.640740,0.060179,0.030740,-0.997714,0.007372,-0.007379,0.065234,43.248558,27.660692,-28.486134,,,,,,,
1508183995.171939,0.055333,-0.031648,3.096715,-0.045378,-0.272494,-0.577932,0.055277,0.031643,-0.997970,0.071966,-0.013210,0.064269,42.910530,28.057911,-28.608597,,,,,,,
1508183995.191951,0.048348,-0.033938,3.086731,-0.102488,-0.363274,-0.452882,0.048301,0.033931,-0.998256,0.117104,0.004826,0.040676,42.427502,28.570131,-28.821281,,,,,,,
1508183995.211956,0.039858,-0.036360,3.079187,-0.110516,-0.435904,-0.354789,0.039821,0.036352,-0.998545,0.157673,-0.007101,0.006404,41.844959,29.089174,-29.151865,,,,,,,
1508183995.231937,0.030868,-0.039375,3.072965,-0.158522,-0.414717,-0.290016,0.030839,0.039364,-0.998749,0.176756,-0.005780,-0.023056,41.500496,29.355982,-29.375961,,,,,,,
1508183995.251971,0.024107,-0.042617,3.067978,-0.127703,-0.284871,-0.237541,0.024083,0.042604,-0.998802,0.186885,0.042967,-0.061058,41.102207,29.683075,-29.606339,,,,,,,
1508183995.271976,0.019351,-0.043625,3.063197,-0.005963,-0.190116,-0.227277,0.019331,0.043611,-0.998862,0.203722,0.010572,-0.044885,40.725960,29.999641,-29.806536,,,,,,,
1508183995.291965,0.015804,-0.043472,3.060238,0.012592,-0.175458,-0.101680,0.015788,0.043458,-0.998930,0.203999,0.004790,-0.040422,40.558445,30.117414,-29.915974,,,,,,,
1508183995.311990,0.012486,-0.042707,3.058940,0.062929,-0.135093,-0.051121,0.012474,0.042694,-0.999010,0.179161,0.016205,-0.032804,40.396461,30.183552,-30.068102,,,,,,,
1508183995.331996,0.011545,-0.041258,3.058151,0.073294,0.004403,-0.027560,0.011535,0.041246,-0.999082,0.128861,-0.006487,0.010374,40.288235,30.181465,-30.215054,,,,,,,
1508183995.351994,0.012286,-0.039875,3.057978,0.066856,0.043758,0.002797,0.012276,0.039864,-0.999130,0.078743,-0.012185,0.037750,40.295620,30.150993,-30.235615,,,,,,,
1508183995.372010,0.017719,-0.037598,3.058768,0.065955,0.034110,0.044524,0.017706,0.037590,-0.999136,0.051905,-0.011131,0.041907,40.320759,30.111282,-30.241669,,,,,,,
1508183995.392016,0.018684,-0.036622,3.059629,0.031629,0.058595,0.039972,0.018670,0.036614,-0.999155,0.030219,-0.012505,0.050303,40.529961,29.987200,-30.084915,,,,,,,
1508183995.412015,0.020468,-0.036809,3.060489,-0.031601,0.101202,0.048999,0.020453,0.036801,-0.999113,0.026819,-0.011532,0.026533,40.579746,29.956503,-30.048359,,,,,,,
1508183995.432029,0.022409,-0.037261,3.061834,-0.013269,0.084098,0.076957,0.022392,0.037253,-0.999055,0.009621,-0.003149,0.005296,40.671135,29.930592,-29.950464,,,,,,,
1508183995.452013,0.023945,-0.037188,3.063478,0.002815,0.077694,0.081303,0.023926,0.037179,-0.999022,-0.010895,0.002860,0.002852,40.789074,29.854795,-29.865602,,,,,,,
1508183995.472019,0.025757,-0.037198,3.064949,-0.006908,0.095829,0.069318,0.025736,0.037189,-0.998977,-0.006800,0.006512,0.004943,40.812813,29.837782,-29.850168,,,,,,,
1508183995.492035,0.027976,-0.037441,3.066463,-0.016558,0.114983,0.080776,0.027952,0.037432,-0.998908,0.006471,0.004881,0.000297,40.961304,29.753199,-29.730968,,,,,,,
1508183995.512056,0.030463,-0.037717,3.068338,-0.012234,0.121335,0.099875,0.030437,0.037708,-0.998825,0.019398,0.015820,-0.001160,41.112312,29.677769,-29.597628,,,,,,,
1508183995.532048,0.032588,-0.037801,3.070780,-0.010924,0.083972,0.139869,0.032559,0.037792,-0.998755,0.048175,0.011295,-0.001657,41.211235,29.615688,-29.522144,,,,,,,
1508183995.552071,0.038472,-0.039828,3.074333,-0.022512,0.067929,0.183828,0.038432,0.039817,-0.998468,0.056661,0.031670,0.003808,41.475525,29.550016,-29.216249,,,,,,,
1508183995.572078,0.040089,-0.040048,3.078414,-0.024600,0.083847,0.214522,0.040046,0.040037,-0.998395,0.087792,0.022356,0.033323,41.666622,29.365524,-29.130230,,,,,,,
1508183995.592075,0.049766,-0.042288,3.083876,-0.070487,0.119965,0.287608,0.049701,0.042275,-0.997869,0.091947,0.010917,0.029638,42.024853,29.269310,-28.709425,,,,,,,
1508183995.612092,0.051546,-0.043262,3.090984,-0.059235,0.042002,0.386830,0.051475,0.043249,-0.997737,0.083382,0.015360,0.018016,42.262878,29.053680,-28.578743,,,,,,,
1508183995.632082,0.052523,-0.043837,3.099298,-0.047366,0.044066,0.418780,0.052449,0.043823,-0.997662,0.033916,0.005844,0.031139,42.575447,28.671957,-28.500214,,,,,,,
1508183995.652084,0.055084,-0.044694,3.107500,-0.083058,0.145321,0.393880,0.055001,0.044679,-0.997486,0.030646,-0.018755,0.041798,42.784126,28.427328,-28.432682,,,,,,,
1508183995.672112,0.058778,-0.046577,3.115285,-0.131317,0.165601,0.379760,0.058681,0.046560,-0.997190,0.033787,-0.011709,0.028349,43.091202,28.142221,-28.252007,,,,,,,
1508183995.692118,0.062970,-0.048014,3.123133,-0.140934,0.173043,0.389257,0.062856,0.047995,-0.996868,0.004847,-0.011557,0.000667,43.475201,27.825254,-27.976311,,,,,,,
1508183995.712113,0.066522,-0.050096,3.131033,-0.123808,0.154960,0.374578,0.066389,0.050075,-0.996536,-0.020628,-0.004452,-0.015915,43.796700,27.530153,-27.766012,,,,,,,
1508183995.732131,0.068094,-0.051138,3.138315,-0.126022,0.162442,0.357410,0.067952,0.051116,-0.996378,-0.030401,-0.012480,-0.020208,44.013535,27.338114,-27.612463,,,,,,,
1508183995.752138,0.072539,-0.053087,-3.137588,-0.105896,0.228487,0.354305,0.072373,0.053062,-0.995965,-0.068055,0.018105,-0.031211,44.324741,27.008078,-27.438898,,,,,,,
1508183995.772131,0.077707,-0.053748,-3.130520,-0.036405,0.240205,0.345552,0.077517,0.053722,-0.995543,-0.101519,-0.006740,-0.027834,44.642967,26.737215,-27.187107,,,,,,,
1508183995.792151,0.082253,-0.053673,-3.123759,-0.020284,0.189119,0.320690,0.082042,0.053647,-0.995184,-0.106044,-0.006665,-0.028193,44.874039,26.517292,-27.021580,,,,,,,
1508183995.812150,0.086240,-0.053959,-3.118024,-0.049352,0.188172,0.265278,0.086008,0.053932,-0.994834,-0.141291,-0.011742,-0.008355,45.078064,26.310564,-26.883713,,,,,,,
1508183995.832157,0.090358,-0.054760,-3.113229,-0.059118,0.187195,0.222647,0.090099,0.054732,-0.994428,-0.136028,-0.003249,-0.025760,45.432697,26.001434,-26.585850,,,,,,,
1508183995.852144,0.093128,-0.055125,-3.108767,-0.023520,0.082807,0.215604,0.092852,0.055097,-0.994154,-0.150271,-0.003431,-0.024431,45.432697,26.001434,-26.585850,,,,,,,
1508183995.872177,0.094702,-0.054989,-3.104973,-0.002273,0.078643,0.164466,0.094417,0.054961,-0.994014,-0.188488,0.006196,-0.015400,45.702763,25.732708,-26.383654,,,,,,,
1508183995.892185,0.096825,-0.054798,-3.103061,-0.005918,0.110810,0.059505,0.096529,0.054771,-0.993822,-0.154024,0.001900,-0.010084,45.880428,25.535870,-26.266285,,,,,,,
1508183995.912192,0.098911,-0.055260,-3.102373,-0.034842,0.076812,0.018434,0.098599,0.055232,-0.993593,-0.139736,0.014196,-0.016889,45.880428,25.535870,-26.266285,,,,,,,
1508183995.932199,0.099462,-0.055757,-3.102077,-0.015382,0.000128,0.009934,0.099144,0.055728,-0.993511,-0.121651,0.023450,-0.018314,45.981598,25.508787,-26.115248,,,,,,,
1508183995.952183,0.099068,-0.055807,-3.102028,0.000694,-0.023284,-0.003600,0.098752,0.055778,-0.993548,-0.103696,0.027214,-0.013121,45.989807,25.508762,-26.100811,,,,,,,
1508183995.972211,0.092047,-0.058199,-3.102772,0.005940,-0.014753,-0.025057,0.091762,0.058167,-0.994081,-0.071254,0.030563,-0.003920,45.786758,25.605017,-26.362240,,,,,,,
1508183995.992218,0.091627,-0.058251,-3.103565,-0.003745,-0.023224,-0.049451,0.091343,0.058218,-0.994116,-0.038807,0.020289,-0.003595,45.754803,25.638220,-26.385445,,,,,,,
1508183996.012210,0.090907,-0.058563,-3.104465,-0.014354,-0.046670,-0.042706,0.090626,0.058530,-0.994164,-0.030064,0.016788,-0.003334,45.726421,25.674557,-26.399303,,,,,,,
1508183996.032233,0.089854,-0.058845,-3.105399,-0.001551,-0.042397,-0.050241,0.089578,0.058811,-0.994242,-0.030374,0.027096,0.013880,45.678009,25.723236,-26.435701,,,,,,,
1508183996.052239,0.089266,-0.059052,-3.106509,-0.016626,-0.018942,-0.058034,0.088992,0.059018,-0.994282,-0.012195,-0.008465,0.027638,45.641777,25.758593,-26.463846,,,,,,,
1508183996.072232,0.088439,-0.060083,-3.107413,-0.062456,-0.063702,-0.042423,0.088164,0.060046,-0.994294,-0.006621,-0.009967,0.006730,45.578281,25.853340,-26.480875,,,,,,,
1508183996.092183,0.086700,-0.061390,-3.108038,-0.058094,-0.081829,-0.033633,0.086428,0.061352,-0.994367,-0.013400,-0.001964,-0.002230,45.532013,25.905636,-26.509344,,,,,,,
1508183996.112190,0.085368,-0.062153,-3.108525,-0.022854,-0.054148,-0.030862,0.085100,0.062113,-0.994434,-0.019243,0.002691,-0.012096,45.486500,25.951162,-26.542934,,,,,,,
1508183996.132197,0.084423,-0.062394,-3.109294,-0.003667,-0.044537,-0.044877,0.084159,0.062354,-0.994500,-0.048850,0.005991,-0.026191,45.418842,26.011633,-26.599543,,,,,,,
1508183996.152203,0.083732,-0.062245,-3.110461,0.025118,-0.026403,-0.061156,0.083472,0.062205,-0.994567,-0.054007,0.003896,-0.025514,45.383408,26.046009,-26.626373,,,,,,,
1508183996.172202,0.078359,-0.061159,-3.111985,0.046609,-0.053065,-0.058654,0.078132,0.061121,-0.995068,-0.073265,-0.002542,-0.020832,45.223919,26.077187,-26.866142,,,,,,,
1508183996.192217,0.076976,-0.059811,-3.113518,0.085112,-0.074329,-0.083966,0.076762,0.059776,-0.995256,-0.135798,-0.018272,-0.007750,45.131191,26.117487,-26.982670,,,,,,,
1508183996.212212,0.075382,-0.058617,-3.116268,0.050578,-0.064571,-0.165120,0.075181,0.058583,-0.995448,-0.144440,-0.020894,-0.007650,45.061157,26.152365,-27.065804,,,,,,,
1508183996.232230,0.073867,-0.058491,-3.120383,0.012965,-0.070843,-0.220449,0.073673,0.058458,-0.995568,-0.152165,-0.009660,-0.016441,44.969990,26.243092,-27.129541,,,,,,,
1508183996.252237,0.071739,-0.058021,-3.125453,0.067468,-0.102712,-0.271210,0.071557,0.057989,-0.995749,-0.159905,0.018030,-0.012063,44.727539,26.528433,-27.252544,,,,,,,
1508183996.272245,0.069194,-0.056657,-3.131516,0.094130,-0.113297,-0.308397,0.069027,0.056626,-0.996006,-0.150723,0.021392,-0.003032,44.727539,26.528433,-27.252544,,,,,,,
1508183996.292250,0.065874,-0.055467,-3.138048,0.070709,-0.172909,-0.325642,0.065725,0.055439,-0.996297,-0.135824,0.019863,0.011601,44.399563,26.853233,-27.469889,,,,,,,
1508183996.312258,0.061218,-0.054587,3.138592,0.066625,-0.232574,-0.319442,0.061089,0.054560,-0.996640,-0.145516,0.023169,0.022031,43.985718,27.224014,-27.769073,,,,,,,
1508183996.332265,0.055757,-0.053365,3.132126,0.084876,-0.266641,-0.331758,0.055649,0.053340,-0.997025,-0.134873,0.019215,0.032562,43.985718,27.224014,-27.769073,,,,,,,
1508183996.352270,0.049891,-0.052806,3.124559,0.015107,-0.268618,-0.399920,0.049800,0.052781,-0.997364,-0.112270,0.002852,0.052478,43.505604,27.584518,-28.166803,,,,,,,
1508183996.372249,0.038814,-0.053985,3.115893,-0.049121,-0.283522,-0.422016,0.038748,0.053958,-0.997791,-0.058737,-0.001010,0.023380,42.783230,28.117519,-28.740427,,,,,,,
1508183996.392285,0.031732,-0.055646,3.106963,-0.074785,-0.350514,-0.477539,0.031678,0.055617,-0.997950,-0.034592,-0.002669,0.028238,42.470554,28.415934,-28.910183,,,,,,,
1508183996.412291,0.025416,-0.057977,3.096811,-0.129635,-0.298224,-0.515576,0.025370,0.057945,-0.997997,0.020269,-0.004814,0.012524,42.114685,28.752287,-29.097612,,,,,,,
1508183996.432277,0.019271,-0.061146,3.086935,-0.153132,-0.274853,-0.480710,0.019234,0.061107,-0.997946,0.124565,0.035313,-0.026483,41.432781,29.499191,-29.328043,,,,,,,
1508183996.452294,0.013074,-0.063767,3.078101,-0.101488,-0.297368,-0.414311,0.013047,0.063724,-0.997882,0.130751,0.032696,-0.026547,45.317238,24.359241,-19.208252,,,,,,,
1508183996.472311,0.005943,-0.065560,3.071072,-0.079614,-0.346576,-0.313382,0.005930,0.065513,-0.997834,0.198415,0.012688,-0.026794,45.079018,24.669552,-19.372074,,,,,,,
1508183996.492318,-0.000974,-0.066924,3.065727,-0.059175,-0.303052,-0.240453,-0.000972,0.066874,-0.997761,0.198649,0.021917,-0.030239,44.650894,25.128265,-19.769922,,,,,,,
1508183996.512326,-0.006433,-0.067676,3.062151,-0.023688,-0.250004,-0.137818,-0.006418,0.067624,-0.997690,0.202402,0.008410,-0.042288,44.484898,25.288300,-19.939342,,,,,,,
1508183996.532330,-0.011806,-0.067439,3.060248,0.026776,-0.245869,-0.081402,-0.011778,0.067388,-0.997657,0.150847,0.000666,-0.027230,44.355221,25.388332,-20.100460,,,,,,,
1508183996.552315,-0.014586,-0.066763,3.058447,0.029384,-0.062612,-0.100056,-0.014553,0.066713,-0.997666,0.130657,-0.027056,-0.004379,44.161507,25.488876,-20.397545,,,,,,,
1508183996.572343,-0.014395,-0.066534,3.056272,0.005524,0.044983,-0.100532,-0.014363,0.066485,-0.997684,0.127095,-0.024737,-0.012814,44.112514,25.554302,-20.421688,,,,,,,
1508183996.592344,-0.013856,-0.065582,3.054866,0.076340,0.025708,-0.058720,-0.013826,0.065535,-0.997755,0.095003,-0.008925,-0.009631,44.087063,25.617283,-20.397732,,,,,,,
1508183996.612331,-0.012628,-0.063843,3.053705,0.085743,0.100276,-0.060875,-0.012602,0.063800,-0.997883,0.056349,-0.008853,0.005452,44.064121,25.655489,-20.399273,,,,,,,
1508183996.632366,-0.009895,-0.062347,3.052565,0.064213,0.151399,-0.054136,-0.009875,0.062306,-0.998008,0.051379,-0.004933,0.009696,44.071159,25.665482,-20.371490,,,,,,,
1508183996.652372,-0.006809,-0.061275,3.052038,0.054749,0.152363,-0.001894,-0.006796,0.061237,-0.998100,0.044409,-0.006076,-0.004402,44.128235,25.687981,-20.219004,,,,,,,
1508183996.672359,-0.004563,-0.059868,3.052709,0.080768,0.091540,0.046952,-0.004555,0.059833,-0.998198,0.021278,0.000379,-0.001314,44.189590,25.643698,-20.141068,,,,,,,
1508183996.692386,-0.002397,-0.058096,3.053872,0.087177,0.114938,0.064735,-0.002393,0.058063,-0.998310,-0.001864,0.003460,0.001926,44.220676,25.605213,-20.121784,,,,,,,
1508183996.712393,0.000274,-0.056461,3.055145,0.077462,0.135196,0.056984,0.000274,0.056431,-0.998406,-0.031951,-0.005802,0.011468,44.340191,25.469725,-20.030533,,,,,,,
1508183996.732379,0.002944,-0.055198,3.056324,0.056116,0.121344,0.061466,0.002939,0.055170,-0.998473,-0.040338,-0.005716,0.013167,44.402416,25.410454,-19.967873,,,,,,,
1508183996.752407,0.005188,-0.054187,3.057540,0.045460,0.105370,0.060640,0.005180,0.054161,-0.998519,-0.037269,0.001107,0.017714,44.462105,25.352709,-19.908373,,,,,,,
1508183996.772412,0.006983,-0.053354,3.058867,0.046656,0.070203,0.067547,0.006973,0.053328,-0.998553,-0.033783,0.020997,0.009692,44.569427,25.241642,-19.809267,,,,,,,
1508183996.792407,0.008259,-0.052357,3.060045,0.044503,0.060642,0.054891,0.008247,0.052334,-0.998596,-0.031364,0.014088,0.016662,44.612473,25.184534,-19.785057,,,,,,,
1508183996.812426,0.009876,-0.051889,3.060944,0.008003,0.088369,0.043854,0.009863,0.051866,-0.998605,-0.022451,0.011931,0.019907,44.664471,25.122076,-19.747107,,,,,,,
1508183996.832433,0.013789,-0.054599,3.062247,-0.018645,0.076620,0.068569,0.013768,0.054572,-0.998415,0.024547,0.027429,0.013979,44.736824,25.064398,-19.656397,,,,,,,
1508183996.852414,0.015421,-0.055008,3.064060,-0.022808,0.072296,0.100624,0.015397,0.054981,-0.998369,0.068405,0.044934,0.009828,44.854916,25.044800,-19.410721,,,,,,,
1508183996.872446,0.017091,-0.055246,3.066592,-0.006631,0.078595,0.145305,0.017064,0.055218,-0.998329,0.066737,0.044697,0.009788,44.917446,24.976849,-19.353600,,,,,,,
1508183996.892453,0.018939,-0.055366,3.070152,-0.017175,0.083817,0.198552,0.018909,0.055338,-0.998289,0.114621,0.038733,0.024168,44.994663,24.881201,-19.297350,,,,,,,
1508183996.912435,0.020732,-0.056051,3.075142,-0.053239,0.067681,0.281985,0.020698,0.056022,-0.998215,0.124154,0.008004,0.010300,45.197624,24.609446,-19.171112,,,,,,,
1508183996.932467,0.021764,-0.057050,3.082210,-0.053807,0.011018,0.385172,0.021726,0.057019,-0.998137,0.123125,0.007007,0.010222,45.327824,24.414219,-19.113245,,,,,,,
1508183996.952474,0.023039,-0.057795,3.090008,-0.039045,0.079200,0.379907,0.022999,0.057762,-0.998065,0.068829,0.003044,0.015293,43.777134,28.064249,-26.561789,,,,,,,
1508183996.972462,0.026773,-0.058599,3.097171,-0.062026,0.212431,0.343870,0.026723,0.058565,-0.997926,0.074732,-0.030108,0.019303,43.977734,27.837177,-26.469198,,,,,,,
1508183996.992479,0.032191,-0.060105,3.103918,-0.092133,0.255060,0.337943,0.032127,0.060069,-0.997677,0.092781,-0.022838,0.010571,44.283848,27.571877,-26.235481,,,,,,,
1508183997.012480,0.036744,-0.061482,3.111009,-0.068302,0.182572,0.361369,0.036667,0.061443,-0.997437,0.077561,-0.016552,0.011460,44.669334,27.247871,-25.918566,,,,,,,
1508183997.032495,0.040759,-0.062156,3.119399,-0.039101,0.170678,0.445757,0.040669,0.062116,-0.997240,0.037364,-0.010755,0.015352,44.742168,27.175907,-25.868443,,,,,,,
1508183997.052508,0.045137,-0.062730,3.128432,-0.065954,0.207963,0.448436,0.045033,0.062689,-0.997017,0.005489,-0.027548,0.020759,45.223663,26.633928,-25.593405,,,,,,,
1508183997.072513,0.050237,-0.064061,3.137363,-0.090667,0.230361,0.437466,0.050113,0.064018,-0.996690,-0.015139,-0.008750,0.004258,45.655247,26.175682,-25.298225,,,,,,,
1508183997.092495,0.055301,-0.065459,-3.137151,-0.093890,0.220800,0.424812,0.055154,0.065412,-0.996333,-0.038644,-0.009992,-0.021093,45.910881,25.912331,-25.105984,,,,,,,
1508183997.112528,0.059891,-0.066312,-3.128709,-0.047857,0.194193,0.407036,0.059724,0.066264,-0.996013,-0.082688,0.005468,-0.022236,46.237270,25.564209,-24.862717,,,,,,,
1508183997.132533,0.064732,-0.066419,-3.120911,-0.029861,0.230461,0.379839,0.064544,0.066371,-0.995705,-0.115951,0.000814,-0.014671,46.616894,25.125454,-24.599693,,,,,,,
1508183997.152525,0.069824,-0.066538,-3.113591,-0.026726,0.219873,0.346935,0.069613,0.066489,-0.995356,-0.139239,0.008859,-0.015981,46.843983,24.873520,-24.423710,,,,,,,
1508183997.172547,0.073964,-0.066494,-3.107166,-0.019202,0.162432,0.305110,0.073734,0.066445,-0.995062,-0.175555,-0.007836,-0.010172,47.116081,24.565041,-24.211609,,,,,,,
1508183997.192553,0.076956,-0.066637,-3.101944,-0.032193,0.129566,0.228823,0.076709,0.066587,-0.994828,-0.180988,0.005114,-0.009399,47.379963,24.240955,-24.022556,,,,,,,
1508183997.212550,0.079792,-0.067078,-3.098325,-0.036710,0.125459,0.152112,0.079528,0.067028,-0.994577,-0.163848,0.002049,-0.013312,47.502357,24.105629,-23.916796,,,,,,,
1508183997.232568,0.082153,-0.067659,-3.095733,-0.042096,0.092521,0.111008,0.081872,0.067608,-0.994347,-0.133127,0.009312,-0.017677,47.632595,23.982676,-23.780983,,,,,,,
1508183997.252560,0.083512,-0.068120,-3.093645,-0.020556,0.039265,0.105366,0.083221,0.068068,-0.994204,-0.103805,0.026857,-0.028669,47.705708,23.917246,-23.700188,,,,,,,
1508183997.272578,0.083649,-0.068022,-3.091424,0.001032,-0.018273,0.110450,0.083358,0.067970,-0.994199,-0.080383,0.026039,-0.004504,47.802944,23.777174,-23.645138,,,,,,,
1508183997.292588,0.083394,-0.068076,-3.089411,-0.019362,-0.019293,0.090220,0.083104,0.068023,-0.994217,-0.080129,0.025986,-0.004486,47.834049,23.701481,-23.658236,,,,,,,
1508183997.312595,0.083278,-0.068243,-3.087960,-0.007723,-0.006455,0.061235,0.082988,0.068190,-0.994215,-0.057155,0.021104,0.001386,47.859619,23.642826,-23.665207,,,,,,,
1508183997.332602,0.082851,-0.068342,-3.086778,-0.015142,-0.038396,0.054240,0.082563,0.068289,-0.994243,-0.045454,-0.002447,0.008816,47.894325,23.558702,-23.678879,,,,,,,
1508183997.352608,0.082009,-0.068851,-3.085996,-0.032330,-0.044730,0.027687,0.081723,0.068797,-0.994278,-0.044614,-0.002955,0.008850,47.895836,23.532713,-23.701651,,,,,,,
1508183997.372612,0.081319,-0.069376,-3.085897,-0.019685,-0.027618,-0.018396,0.081034,0.069320,-0.994298,-0.048212,0.002182,0.003911,47.889824,23.524450,-23.722004,,,,,,,
1508183997.392621,0.081047,-0.069909,-3.086706,-0.031629,-0.003052,-0.049666,0.080760,0.069852,-0.994283,-0.021175,-0.009504,-0.000407,47.858131,23.571764,-23.738979,,,,,,,
1508183997.412621,0.081017,-0.070672,-3.087935,-0.032798,0.005515,-0.072182,0.080727,0.070613,-0.994232,-0.017830,-0.009303,-0.005783,47.858131,23.571764,-23.738979,,,,,,,
1508183997.432635,0.081323,-0.071251,-3.089463,-0.012544,0.026824,-0.076772,0.081027,0.071191,-0.994166,-0.016757,-0.002587,-0.014562,47.815289,23.686306,-23.711296,,,,,,,
1508183997.452642,0.080034,-0.070651,-3.090893,0.010097,-0.012631,-0.061288,0.079749,0.070593,-0.994312,-0.018989,-0.005239,-0.016628,47.743599,23.785385,-23.756529,,,,,,,
1508183997.472649,0.079376,-0.070530,-3.091874,0.005939,-0.035035,-0.043900,0.079096,0.070472,-0.994373,-0.030100,-0.006904,-0.015759,47.743599,23.785385,-23.756529,,,,,,,
1508183997.492656,0.069796,-0.068955,-3.093526,0.015526,-0.033979,-0.058853,0.069574,0.068900,-0.995195,-0.050714,-0.006019,-0.012618,47.585068,23.840033,-24.018368,,,,,,,
1508183997.512660,0.059415,-0.068315,-3.095709,0.058252,-0.030792,-0.080259,0.059242,0.068262,-0.995907,-0.063163,-0.013315,-0.012333,47.145287,23.942038,-24.772346,,,,,,,
1508183997.532669,0.057895,-0.067096,-3.097334,0.063827,-0.103236,-0.077080,0.057733,0.067045,-0.996078,-0.071496,-0.020201,-0.008774,47.145287,23.942038,-24.772346,,,,,,,
1508183997.552676,0.055226,-0.066211,-3.099375,0.047704,-0.127644,-0.121499,0.055077,0.066162,-0.996288,-0.124382,-0.006012,-0.012852,47.035172,24.006306,-24.919025,,,,,,,
1508183997.572665,0.053138,-0.065430,-3.103018,0.046180,-0.072073,-0.210807,0.053000,0.065384,-0.996452,-0.129980,0.013947,-0.014504,46.850487,24.162432,-25.115267,,,,,,,
1508183997.592690,0.051305,-0.064681,-3.107996,0.051446,-0.092224,-0.255303,0.051175,0.064636,-0.996596,-0.123181,0.009247,-0.019548,46.741371,24.304768,-25.181158,,,,,,,
1508183997.612696,0.048083,-0.063774,-3.113338,0.066582,-0.164628,-0.273458,0.047967,0.063731,-0.996814,-0.134255,0.020116,-0.020856,46.612247,24.463579,-25.266577,,,,,,,
1508183997.632686,0.044027,-0.062251,-3.119887,0.103798,-0.180441,-0.360693,0.043928,0.062211,-0.997096,-0.153547,0.030334,-0.012777,46.271069,24.809416,-25.554825,,,,,,,
1508183997.652710,0.040633,-0.060379,-3.128225,0.109809,-0.128089,-0.439297,0.040548,0.060342,-0.997354,-0.150167,0.032202,-0.012519,46.065018,25.032043,-25.709520,,,,,,,
1508183997.672716,0.037258,-0.058796,-3.137677,0.090509,-0.157833,-0.478304,0.037185,0.058762,-0.997579,-0.107528,0.031433,0.003561,45.848923,25.292692,-25.840359,,,,,,,
1508183997.692723,0.032875,-0.057393,3.135491,0.089442,-0.201430,-0.517125,0.032815,0.057362,-0.997814,-0.093270,0.028682,0.039623,45.350060,25.880684,-26.136763,,,,,,,
1508183997.712730,0.028046,-0.056119,3.124392,0.066856,-0.218366,-0.568044,0.027999,0.056090,-0.998033,-0.056731,0.013811,0.052232,45.062046,26.206934,-26.309246,,,,,,,
1508183997.732735,0.023131,-0.055929,3.112943,-0.025081,-0.242851,-0.563355,0.023092,0.055900,-0.998169,0.017313,-0.012855,0.051483,44.751209,26.563343,-26.481806,,,,,,,
1508183997.752742,0.016822,-0.057327,3.102504,-0.066391,-0.311152,-0.495157,0.016794,0.057295,-0.998216,0.070120,0.005769,0.022523,44.111176,27.314060,-26.790194,,,,,,,
1508183997.772749,0.009569,-0.058450,3.093430,-0.040383,-0.348575,-0.428523,0.009552,0.058417,-0.998247,0.093506,0.016717,0.015153,43.892361,27.545624,-26.912212,,,,,,,
1508183997.792753,0.001622,-0.059677,3.085913,-0.080654,-0.389211,-0.344732,0.001619,0.059641,-0.998219,0.158904,-0.008753,0.001530,43.256016,28.128864,-27.335917,,,,,,,
1508183997.812740,-0.006242,-0.061832,3.079929,-0.119023,-0.359523,-0.270492,-0.006230,0.061792,-0.998070,0.166890,0.010077,-0.015831,42.959015,28.377968,-27.546005,,,,,,,
1508183997.832770,-0.013348,-0.063783,3.075513,-0.074962,-0.339447,-0.194043,-0.013320,0.063740,-0.997878,0.183745,0.033550,-0.019563,42.614941,28.663601,-27.783680,,,,,,,
1508183997.852777,-0.020314,-0.064590,3.072223,-0.037361,-0.326788,-0.136674,-0.020271,0.064545,-0.997709,0.188529,-0.002152,-0.009478,42.244820,28.901413,-28.100740,,,,,,,
1508183997.872783,-0.026183,-0.065327,3.070415,-0.035205,-0.260875,-0.071521,-0.026125,0.065281,-0.997525,0.179460,0.006085,-0.014972,42.063145,28.990320,-28.281118,,,,,,,
1508183997.892792,-0.030222,-0.065842,3.069087,-0.023728,-0.147987,-0.059305,-0.030152,0.065795,-0.997378,0.158204,0.003297,-0.013838,41.879585,29.070061,-28.471041,,,,,,,
1508183997.912797,-0.031912,-0.066069,3.068250,-0.005732,-0.054302,-0.034020,-0.031837,0.066021,-0.997310,0.145561,0.001835,-0.008244,41.756042,29.137184,-28.583658,,,,,,,
1508183997.932796,-0.032406,-0.065949,3.067717,0.012350,-0.005327,-0.023014,-0.032329,0.065901,-0.997302,0.116161,0.002276,0.002124,41.724663,29.157087,-28.609179,,,,,,,
1508183997.952811,-0.024085,-0.065434,3.067846,0.018605,0.057542,-0.017531,-0.024031,0.065388,-0.997571,0.076186,-0.002598,0.019803,41.945770,29.142435,-28.299105,,,,,,,
1508183997.972817,-0.022703,-0.065207,3.067630,0.000428,0.069235,-0.002759,-0.022653,0.065161,-0.997618,0.056802,-0.016882,0.023588,41.978050,29.147465,-28.246004,,,,,,,
1508183997.992814,-0.021208,-0.065318,3.068020,-0.000570,0.079824,0.029078,-0.021161,0.065272,-0.997643,0.019345,-0.002345,0.018456,42.010368,29.144466,-28.201010,,,,,,,
1508183998.012832,-0.019679,-0.065027,3.068691,0.018723,0.072356,0.032370,-0.019636,0.064981,-0.997693,0.001723,-0.009256,0.011258,42.071438,29.117290,-28.137983,,,,,,,
1508183998.032837,-0.018086,-0.064905,3.068945,0.000390,0.085207,0.000209,-0.018047,0.064860,-0.997731,-0.013050,-0.002604,0.004323,42.140968,29.083893,-28.068378,,,,,,,
1508183998.052821,-0.016217,-0.064843,3.068846,0.009978,0.093738,-0.005254,-0.016182,0.064798,-0.997767,-0.011680,0.010321,-0.002935,42.190243,29.086596,-27.991459,,,,,,,
1508183998.072838,-0.014453,-0.064576,3.068682,0.009974,0.092677,-0.007371,-0.014423,0.064532,-0.997811,-0.009839,0.009474,-0.000022,42.213757,29.085852,-27.956760,,,,,,,
1508183998.092858,-0.012541,-0.064575,3.068769,-0.008152,0.090515,0.010801,-0.012514,0.064531,-0.997837,-0.003416,0.012999,-0.000957,42.288788,29.083441,-27.845655,,,,,,,
1508183998.112849,-0.010871,-0.064821,3.068980,-0.012413,0.084124,0.010897,-0.010848,0.064776,-0.997841,0.014769,0.016096,-0.010155,42.341919,29.080605,-27.767761,,,,,,,
1508183998.132871,-0.009251,-0.065025,3.069577,-0.009073,0.075537,0.043008,-0.009231,0.064980,-0.997844,0.023055,0.010094,-0.013799,42.369362,29.078009,-27.728594,,,,,,,
1508183998.152876,-0.007757,-0.064750,3.070801,0.030638,0.065885,0.070842,-0.007740,0.064705,-0.997874,0.058216,0.023338,-0.007588,42.471504,29.019815,-27.633131,,,,,,,
1508183998.172870,-0.000496,-0.065478,3.072929,0.038114,0.103127,0.102287,-0.000495,0.065431,-0.997857,0.068946,0.006315,0.012948,42.490891,29.000528,-27.623579,,,,,,,
1508183998.192864,0.001702,-0.065296,3.075333,-0.012082,0.100954,0.130080,0.001699,0.065250,-0.997868,0.105571,-0.010532,0.024464,42.808994,28.875154,-27.261396,,,,,,,
1508183998.212898,0.004000,-0.066052,3.078440,-0.048351,0.109400,0.172637,0.003991,0.066004,-0.997811,0.114921,0.005315,0.021264,42.979317,28.740322,-27.135597,,,,,,,
1508183998.232903,0.007101,-0.066812,3.082324,-0.024872,0.165787,0.204857,0.007085,0.066762,-0.997744,0.129679,0.029933,0.011721,43.018959,28.709749,-27.105120,,,,,,,
1508183998.252912,0.011029,-0.066753,3.087357,0.007454,0.178401,0.285688,0.011005,0.066703,-0.997712,0.140973,0.016259,0.017243,43.320267,28.466520,-26.880844,,,,,,,
1508183998.272918,0.014623,-0.066788,3.093895,-0.021170,0.152724,0.344729,0.014590,0.066739,-0.997664,0.129835,-0.004773,0.020674,43.645706,28.137447,-26.700279,,,,,,,
1508183998.292903,0.018850,-0.067468,3.101126,-0.049108,0.213411,0.364129,0.018806,0.067417,-0.997548,0.105095,-0.000476,0.018956,43.859646,27.917837,-26.579967,,,,,,,
1508183998.312933,0.024297,-0.068304,3.108749,-0.045926,0.253832,0.392331,0.024238,0.068250,-0.997374,0.095558,0.002123,0.011274,44.180630,27.620533,-26.358047,,,,,,,
1508183998.332939,0.029835,-0.068488,3.117032,-0.004051,0.244164,0.427627,0.029761,0.068435,-0.997212,0.061075,-0.001754,0.010121,44.619686,27.199486,-26.054554,,,,,,,
1508183998.352936,0.036791,-0.066840,3.125772,-0.026568,0.252716,0.418991,0.036701,0.066791,-0.997092,0.016278,-0.023379,0.018332,44.890762,26.910181,-25.888800,,,,,,,
1508183998.372953,0.043416,-0.067662,3.133558,-0.070844,0.340153,0.372991,0.043303,0.067610,-0.996772,-0.014372,-0.013350,0.002997,45.287674,26.508291,-25.610645,,,,,,,
1508183998.392959,0.051015,-0.068589,3.141054,-0.051602,0.347603,0.373935,0.050873,0.068535,-0.996351,-0.013687,0.012046,-0.011752,45.752384,26.126848,-25.172911,,,,,,,
1508183998.412959,0.057382,-0.068858,-3.134151,-0.028741,0.258041,0.412537,0.057215,0.068803,-0.995988,-0.038553,0.010374,-0.005263,46.023865,25.880293,-24.931555,,,,,,,
1508183998.432973,0.062512,-0.068745,-3.125561,-0.012528,0.215405,0.423806,0.062323,0.068691,-0.995689,-0.067298,0.006169,-0.009071,46.363499,25.508047,-24.684681,,,,,,,
1508183998.452979,0.067771,-0.068420,-3.118030,-0.015033,0.252845,0.345425,0.067561,0.068367,-0.995370,-0.137949,0.001992,-0.012107,46.604290,25.218815,-24.527931,,,,,,,
1508183998.472969,0.073271,-0.068626,-3.111767,-0.036588,0.246566,0.292217,0.073033,0.068572,-0.994969,-0.139714,0.011994,-0.024516,47.042191,24.753971,-24.162811,,,,,,,
1508183998.492985,0.077460,-0.068812,-3.106240,-0.022476,0.149679,0.265888,0.077199,0.068758,-0.994642,-0.148107,0.020079,-0.023913,47.229305,24.566057,-23.988953,,,,,,,
1508183998.512982,0.080170,-0.068726,-3.101329,-0.010721,0.114597,0.229067,0.079895,0.068671,-0.994435,-0.169327,0.032037,-0.012401,47.468433,24.273338,-23.814301,,,,,,,
1508183998.533007,0.083042,-0.068566,-3.097730,-0.000358,0.138194,0.146612,0.082752,0.068512,-0.994212,-0.152728,0.027420,-0.008672,47.624802,24.087368,-23.690613,,,,,,,
1508183998.553002,0.085531,-0.068520,-3.095554,-0.012174,0.092503,0.090770,0.085226,0.068466,-0.994006,-0.140555,0.021377,-0.011182,47.624802,24.087368,-23.690613,,,,,,,
1508183998.573020,0.086638,-0.068789,-3.093986,-0.021692,0.030765,0.069280,0.086325,0.068735,-0.993893,-0.134664,0.028418,-0.002338,47.784817,23.934042,-23.523203,,,,,,,
1508183998.593026,0.086836,-0.068936,-3.093017,-0.006727,-0.002191,0.034559,0.086521,0.068882,-0.993866,-0.096927,0.035595,0.004242,47.848160,23.855856,-23.473808,,,,,,,
1508183998.613034,0.086770,-0.069169,-3.092644,-0.017511,-0.003201,0.007924,0.086454,0.069114,-0.993856,-0.084028,0.033105,0.012380,47.848160,23.855856,-23.473808,,,,,,,
1508183998.633040,0.081700,-0.070425,-3.093010,-0.059246,-0.025539,-0.013048,0.081407,0.070367,-0.994194,-0.052156,0.002524,0.016060,47.857944,23.840345,-23.469631,,,,,,,
1508183998.653047,0.080980,-0.071965,-3.093413,-0.076398,-0.038275,-0.034177,0.080682,0.071902,-0.994143,-0.024591,0.017712,0.004321,47.707798,23.932425,-23.680649,,,,,,,
1508183998.673055,0.080225,-0.073240,-3.094068,-0.049646,-0.039345,-0.035248,0.079924,0.073174,-0.994111,-0.012450,0.016471,-0.003508,47.707798,23.932425,-23.680649,,,,,,,
1508183998.693061,0.078982,-0.073914,-3.094691,-0.024959,-0.069170,-0.039099,0.078684,0.073847,-0.994161,-0.003764,0.008596,-0.009364,47.654701,24.027180,-23.691610,,,,,,,
1508183998.713060,0.077812,-0.074666,-3.095610,-0.042208,-0.039314,-0.051248,0.077517,0.074596,-0.994196,-0.000033,0.000401,-0.010473,47.581039,24.106447,-23.759041,,,,,,,
1508183998.733074,0.077324,-0.075505,-3.096609,-0.032651,-0.014816,-0.051611,0.077027,0.075434,-0.994171,0.005355,-0.001261,-0.006470,47.551319,24.158695,-23.765476,,,,,,,
1508183998.753081,0.076959,-0.075923,-3.097433,-0.004759,-0.023372,-0.037646,0.076662,0.075850,-0.994168,-0.004915,-0.003874,-0.008075,47.527561,24.207033,-23.763815,,,,,,,
1508183998.773063,0.075845,-0.075886,-3.098383,0.004941,-0.064886,-0.054112,0.075554,0.075813,-0.994255,-0.021110,-0.016899,-0.001579,47.473629,24.270748,-23.806589,,,,,,,
1508183998.793095,0.074500,-0.076176,-3.099494,-0.016493,-0.057417,-0.057403,0.074215,0.076103,-0.994334,-0.030514,-0.009330,-0.006383,47.429810,24.311062,-23.852745,,,,,,,
1508183998.813101,0.068684,-0.076246,-3.101194,0.010192,-0.051023,-0.072445,0.068431,0.076172,-0.994744,-0.051356,0.000381,-0.016258,47.388149,24.357296,-23.888359,,,,,,,
1508183998.833095,0.067305,-0.075922,-3.102756,0.027339,-0.072309,-0.083879,0.067061,0.075849,-0.994862,-0.090025,0.001300,-0.011333,47.175098,24.465757,-24.197214,,,,,,,
1508183998.853115,0.065453,-0.075525,-3.105029,0.025098,-0.085006,-0.126345,0.065220,0.075453,-0.995014,-0.088184,0.001695,-0.011181,47.111126,24.522997,-24.263811,,,,,,,
1508183998.873120,0.062998,-0.075003,-3.107841,0.047654,-0.136102,-0.146947,0.062779,0.074933,-0.995210,-0.123616,0.006183,-0.035429,47.033321,24.601925,-24.334761,,,,,,,
1508183998.893115,0.059607,-0.073756,-3.111386,0.080757,-0.159461,-0.189285,0.059410,0.073689,-0.995510,-0.151283,0.003292,-0.022724,46.860222,24.747004,-24.520887,,,,,,,
1508183998.913136,0.056255,-0.072654,-3.116103,0.062302,-0.149724,-0.261921,0.056077,0.072590,-0.995784,-0.154847,0.002178,-0.014378,46.685280,24.894268,-24.704819,,,,,,,
1508183998.933142,0.052603,-0.071869,-3.122492,0.054617,-0.167678,-0.338428,0.052443,0.071807,-0.996039,-0.161253,0.013124,-0.013666,46.411331,25.189264,-24.921032,,,,,,,
1508183998.953120,0.048281,-0.070759,-3.129944,0.086635,-0.195281,-0.389235,0.048141,0.070700,-0.996335,-0.165665,0.029138,-0.008807,46.211979,25.408218,-25.068777,,,,,,,
1508183998.973156,0.043710,-0.069224,-3.138461,0.097218,-0.210097,-0.439144,0.043592,0.069168,-0.996652,-0.159787,0.030304,-0.003760,45.911999,25.728266,-25.292549,,,,,,,
1508183998.993162,0.038492,-0.068334,3.135043,0.039298,-0.231264,-0.500639,0.038393,0.068281,-0.996927,-0.113237,0.025682,0.017008,45.476479,26.198406,-25.594957,,,,,,,
1508183999.013148,0.032483,-0.068094,3.125170,0.029930,-0.302664,-0.484668,0.032402,0.068042,-0.997156,-0.082497,0.026471,-0.004309,45.185818,26.525352,-25.772383,,,,,,,
1508183999.033175,0.025267,-0.067622,3.114465,0.038257,-0.306776,-0.560322,0.025206,0.067571,-0.997396,-0.059539,0.037364,0.002142,44.759140,26.955772,-26.068636,,,,,,,
1508183999.053160,0.018758,-0.068329,3.103356,0.016779,-0.268448,-0.548066,0.018713,0.068276,-0.997491,-0.006567,0.021339,0.030557,44.190155,27.551519,-26.414244,,,,,,,
1508183999.073176,0.011903,-0.068649,3.092572,-0.031080,-0.337732,-0.520368,0.011875,0.068595,-0.997574,0.073299,-0.021247,0.017548,43.841515,27.936172,-26.590607,,,,,,,
1508183999.093196,0.003563,-0.070190,3.082646,-0.094998,-0.399563,-0.488501,0.003554,0.070133,-0.997531,0.103166,-0.016010,0.004077,43.486416,28.289707,-26.799120,,,,,,,
1508183999.113202,-0.004758,-0.072379,3.073140,-0.108919,-0.358084,-0.453904,-0.004745,0.072316,-0.997370,0.143325,0.009013,-0.006856,42.752785,28.996416,-27.220861,,,,,,,
1508183999.133210,-0.011974,-0.073606,3.064947,-0.030735,-0.315614,-0.393799,-0.011941,0.073539,-0.997221,0.184854,0.029412,-0.021334,42.422138,29.310232,-27.401472,,,,,,,
1508183999.153217,-0.018397,-0.073670,3.057626,-0.012505,-0.270984,-0.341145,-0.018346,0.073604,-0.997119,0.209676,-0.001933,-0.026319,42.117229,29.573469,-27.588356,,,,,,,
1508183999.173222,-0.023215,-0.074041,3.051827,-0.019935,-0.194462,-0.252680,-0.023149,0.073973,-0.996992,0.231691,0.010316,-0.039797,41.608482,30.000608,-27.897415,,,,,,,
1508183999.193202,-0.027109,-0.073620,3.048074,0.034907,-0.171249,-0.148560,-0.027032,0.073553,-0.996925,0.226465,0.021845,-0.036156,41.427067,30.143753,-28.012861,,,,,,,
1508183999.213219,-0.030027,-0.072327,3.046457,0.080028,-0.123521,-0.050120,-0.029944,0.072264,-0.996936,0.181006,0.021746,-0.012067,41.254059,30.231583,-28.173079,,,,,,,
1508183999.233243,-0.032266,-0.070180,3.045616,0.108806,-0.075611,-0.041240,-0.032181,0.070122,-0.997019,0.134506,0.006050,0.019968,41.128147,30.219400,-28.369555,,,,,,,
1508183999.253230,-0.032431,-0.068368,3.044918,0.069977,0.025601,-0.043745,-0.032350,0.068315,-0.997139,0.093888,-0.016206,0.043740,41.092434,30.198193,-28.443792,,,,,,,
1508183999.273257,-0.031307,-0.067775,3.043965,0.006699,0.071428,-0.046495,-0.031230,0.067723,-0.997215,0.077174,-0.023976,0.035866,41.084427,30.200624,-28.452778,,,,,,,
1508183999.293263,-0.029640,-0.067597,3.043226,0.019522,0.094828,-0.030849,-0.029568,0.067545,-0.997278,0.051266,0.006994,0.019708,41.107128,30.238960,-28.379169,,,,,,,
1508183999.313258,-0.027899,-0.066688,3.042736,0.061304,0.085218,-0.024343,-0.027833,0.066639,-0.997389,0.047013,0.017102,0.022810,41.133873,30.244120,-28.334890,,,,,,,
1508183999.333277,-0.026394,-0.065560,3.042704,0.041148,0.065976,0.012205,-0.026334,0.065513,-0.997504,0.039212,0.006707,0.027396,41.169445,30.225681,-28.302885,,,,,,,
1508183999.353284,-0.024949,-0.065372,3.043065,-0.005959,0.080888,0.018422,-0.024893,0.065325,-0.997553,0.017599,0.002118,0.021433,41.228085,30.191788,-28.253656,,,,,,,
1508183999.373286,-0.023191,-0.065728,3.043569,-0.019840,0.087248,0.032216,-0.023139,0.065681,-0.997572,0.007331,0.011605,-0.001100,41.272694,30.183872,-28.196928,,,,,,,
1508183999.393298,-0.021511,-0.065788,3.044354,0.010179,0.079762,0.042965,-0.021463,0.065741,-0.997606,0.005335,0.017160,-0.010146,41.341064,30.164734,-28.117138,,,,,,,
