timestamp(unix),attitude_roll(radians),attitude_pitch(radians),attitude_yaw(radians),rotation_rate_x(radians/s),rotation_rate_y(radians/s),rotation_rate_z(radians/s),gravity_x(G),gravity_y(G),gravity_z(G),user_acc_x(G),user_acc_y(G),user_acc_z(G),magnetic_field_x(microteslas),magnetic_field_y(microteslas),magnetic_field_z(microteslas),latitude(degree),longitude(degree),altitude(meter),speed(m/s),course(degree),timestamp(unix),User Mark
1508183684.861927,0.045174,0.076280,-3.136944,0.027192,-0.009102,0.007698,0.045028,-0.076206,-0.996075,0.007249,0.000431,-0.001575,1.006643,17.573273,-62.250877,,,,,,,
1508183684.881932,0.044955,0.077017,-3.136428,0.035885,-0.019818,0.038770,0.044807,-0.076941,-0.996028,0.001458,-0.000223,-0.003972,1.014802,17.532001,-62.262383,,,,,,,
1508183684.901959,0.044461,0.077670,-3.135762,0.011208,-0.008075,0.029021,0.044312,-0.077592,-0.996000,-0.010758,-0.005447,0.006544,1.005956,17.500402,-62.271416,,,,,,,
1508183684.921961,0.043939,0.077325,-3.135257,0.002612,-0.005927,0.020466,0.043793,-0.077248,-0.996050,-0.004777,0.012871,-0.004545,0.984501,17.484320,-62.276276,,,,,,,
1508183684.941961,0.043756,0.077454,-3.135026,0.031428,0.003680,0.006443,0.043611,-0.077377,-0.996048,-0.003785,0.002411,-0.005417,0.976795,17.503378,-62.271042,,,,,,,
1508183684.961978,0.043890,0.077923,-3.134810,0.021861,-0.003799,0.019354,0.043743,-0.077844,-0.996005,0.005879,0.003763,-0.007031,0.974830,17.475502,-62.278900,,,,,,,
1508183684.981982,0.043300,0.078521,-3.134251,0.033743,-0.029390,0.030380,0.043153,-0.078441,-0.995984,-0.005906,0.004207,0.001447,0.975316,17.435684,-62.290058,,,,,,,
1508183685.001984,0.042320,0.079328,-3.133846,0.007908,0.002608,0.011808,0.042174,-0.079244,-0.995963,-0.015410,-0.007792,0.009055,0.930271,17.402098,-62.300137,,,,,,,
1508183685.021993,0.042651,0.079018,-3.133735,-0.025368,0.028199,0.002931,0.042505,-0.078935,-0.995973,0.000556,0.004427,-0.000700,0.911567,17.377285,-62.307335,,,,,,,
1508183685.041998,0.043079,0.078818,-3.133545,0.031479,0.001520,0.020336,0.042932,-0.078737,-0.995971,0.003165,0.004121,-0.005464,0.956368,17.417244,-62.295506,,,,,,,
1508183685.062000,0.042332,0.079939,-3.132889,0.048771,-0.038995,0.035839,0.042184,-0.079854,-0.995914,-0.005258,-0.004909,-0.000882,0.954691,17.383604,-62.304924,,,,,,,
1508183685.082010,0.041019,0.080709,-3.132425,0.021927,-0.035744,0.010221,0.040874,-0.080622,-0.995906,-0.011195,-0.001760,0.001064,0.895391,17.317793,-62.324135,,,,,,,
1508183685.102013,0.040730,0.080661,-3.132596,0.000283,0.020765,-0.012975,0.040586,-0.080573,-0.995922,-0.003279,0.005653,0.005794,0.837084,17.293314,-62.331741,,,,,,,
1508183685.122005,0.041749,0.080485,-3.132738,0.009909,0.034589,-0.001453,0.041601,-0.080398,-0.995894,0.011774,0.005844,0.000670,0.860811,17.307928,-62.327362,,,,,,,
1508183685.142027,0.042387,0.080520,-3.132581,0.031531,-0.017653,0.019548,0.042237,-0.080433,-0.995865,0.011519,0.013706,0.001663,0.931192,17.308998,-62.326054,,,,,,,
1508183685.162029,0.041813,0.081312,-3.132237,0.058303,-0.028305,0.016484,0.041663,-0.081222,-0.995825,0.000360,0.002441,0.008017,0.921212,17.276550,-62.335201,,,,,,,
1508183685.182011,0.041793,0.082057,-3.132071,0.036732,0.016462,0.005188,0.041641,-0.081965,-0.995765,0.002045,0.006602,0.007926,0.911917,17.225554,-62.349449,,,,,,,
1508183685.202042,0.042544,0.082721,-3.132107,0.028126,0.029253,0.002876,0.042386,-0.082626,-0.995679,0.008594,0.002563,0.009305,0.924369,17.202621,-62.355598,,,,,,,
1508183685.222046,0.043049,0.083080,-3.131797,-0.001666,-0.001678,0.026806,0.042887,-0.082985,-0.995628,0.005651,-0.000771,-0.002313,0.993841,17.151073,-62.368725,,,,,,,
1508183685.242039,0.042782,0.083418,-3.131246,0.042218,-0.010202,0.022631,0.042620,-0.083321,-0.995611,-0.005312,0.006844,-0.003382,0.999750,17.143892,-62.370609,,,,,,,
1508183685.262058,0.042828,0.084410,-3.131081,0.045212,0.038840,0.000591,0.042662,-0.084309,-0.995526,-0.013320,0.001515,0.001538,0.998794,17.114689,-62.378643,,,,,,,
1508183685.282063,0.043833,0.085140,-3.131230,0.012963,0.079351,-0.011699,0.043660,-0.085037,-0.995421,-0.006307,-0.004212,0.007521,1.049250,17.033886,-62.399929,,,,,,,
1508183685.302043,0.045241,0.085496,-3.131426,0.015211,0.052702,-0.002784,0.045060,-0.085392,-0.995328,0.006423,-0.004910,0.004132,1.133241,17.005424,-62.406223,,,,,,,
1508183685.322048,0.045176,0.086143,-3.131162,0.032733,-0.049625,0.027477,0.044993,-0.086036,-0.995276,0.009176,-0.003731,-0.003580,1.158261,16.993885,-62.408909,,,,,,,
1508183685.342079,0.043583,0.086806,-3.130539,0.018803,-0.045357,0.025293,0.043405,-0.086697,-0.995289,-0.022515,-0.000278,0.009937,1.109221,16.928190,-62.427647,,,,,,,
1508183685.362060,0.042816,0.087193,-3.130225,0.018534,0.030299,0.011401,0.042640,-0.087083,-0.995288,-0.013603,-0.001464,0.005511,1.015651,16.902580,-62.436176,,,,,,,
1508183685.382092,0.043188,0.087681,-3.130083,0.029268,0.010073,0.003156,0.043008,-0.087568,-0.995230,-0.007089,-0.000276,-0.000345,1.038823,16.890894,-62.438961,,,,,,,
1508183685.402096,0.042381,0.088407,-3.129935,0.019728,-0.018691,0.004646,0.042202,-0.088292,-0.995200,-0.018048,-0.006008,0.006843,1.035776,16.837023,-62.453560,,,,,,,
1508183685.422093,0.041483,0.088822,-3.130103,-0.010385,0.004800,-0.021263,0.041308,-0.088705,-0.995201,-0.015154,-0.007929,0.007683,0.969374,16.802887,-62.463821,,,,,,,
1508183685.442108,0.041781,0.088082,-3.130637,-0.043682,0.032530,-0.034436,0.041607,-0.087968,-0.995254,-0.003490,0.003648,-0.000840,0.943224,16.807762,-62.462906,,,,,,,
1508183685.462113,0.042494,0.087003,-3.131152,-0.001768,-0.006934,-0.013635,0.042320,-0.086893,-0.995318,0.014152,0.017908,-0.009488,0.971157,16.881674,-62.442543,,,,,,,
1508183685.482095,0.042153,0.087253,-3.131494,0.064675,-0.043164,-0.015292,0.041980,-0.087142,-0.995311,0.004391,0.008254,-0.007802,0.980886,16.917046,-62.432816,,,,,,,
1508183685.502125,0.041710,0.088442,-3.131723,0.060300,-0.004826,-0.009447,0.041535,-0.088327,-0.995225,0.001129,0.003610,0.000566,0.931933,16.851437,-62.451309,,,,,,,
1508183685.522129,0.042409,0.089517,-3.132214,0.044072,0.034630,-0.028134,0.042227,-0.089397,-0.995100,0.005869,-0.004566,0.005049,0.941601,16.768753,-62.473412,,,,,,,
1508183685.542127,0.043431,0.090063,-3.132660,-0.007131,0.001586,-0.009490,0.043241,-0.089942,-0.995008,0.020510,-0.005639,0.001920,0.985334,16.719460,-62.485954,,,,,,,
1508183685.562142,0.043654,0.089697,-3.132594,0.005783,-0.004841,0.007655,0.043464,-0.089577,-0.995031,0.002343,0.008904,0.003149,1.026498,16.726564,-62.483387,,,,,,,
1508183685.582145,0.043915,0.090026,-3.132521,0.027119,0.013270,0.004177,0.043723,-0.089904,-0.994990,0.007165,0.000701,0.004649,1.032008,16.724335,-62.483891,,,,,,,
1508183685.602127,0.044250,0.090628,-3.132372,0.027250,-0.016582,0.017405,0.044054,-0.090504,-0.994921,0.014082,-0.002194,0.000537,1.055442,16.699038,-62.490269,,,,,,,
1508183685.622158,0.043937,0.091180,-3.131915,0.025176,-0.029380,0.026123,0.043740,-0.091054,-0.994885,0.019446,-0.000621,0.000805,1.077088,16.660950,-62.500061,,,,,,,
1508183685.642161,0.043910,0.091743,-3.131492,0.016471,0.013244,0.020180,0.043711,-0.091615,-0.994835,-0.001155,-0.002746,0.010963,1.064480,16.620800,-62.510963,,,,,,,
1508183685.662168,0.044406,0.092196,-3.131217,0.012131,0.021789,0.009396,0.044202,-0.092066,-0.994771,0.003008,-0.005804,0.011114,1.086151,16.600292,-62.516045,,,,,,,
1508183685.682174,0.044966,0.092499,-3.131069,-0.003899,0.017528,0.011603,0.044759,-0.092367,-0.994718,0.005244,-0.010904,0.012876,1.131270,16.562216,-62.525345,,,,,,,
1508183685.702179,0.045314,0.092746,-3.130759,-0.004896,0.001536,0.019299,0.045104,-0.092613,-0.994680,0.005921,-0.004540,0.011861,1.163586,16.555302,-62.526577,,,,,,,
1508183685.722185,0.045635,0.092696,-3.130367,0.003575,0.032424,0.019911,0.045423,-0.092563,-0.994670,-0.002958,0.003864,0.012538,1.185124,16.550520,-62.527443,,,,,,,
1508183685.742188,0.046649,0.092501,-3.130023,-0.002827,0.023909,0.017907,0.046433,-0.092369,-0.994642,0.011978,0.007896,0.003660,1.237145,16.553282,-62.525703,,,,,,,
1508183685.762184,0.047125,0.092366,-3.129585,0.013325,0.002578,0.029933,0.046907,-0.092235,-0.994632,0.005904,0.003673,0.003375,1.302189,16.574532,-62.518753,,,,,,,
1508183685.782201,0.047278,0.092579,-3.128902,0.016551,0.002567,0.035262,0.047058,-0.092447,-0.994605,0.003662,0.004389,0.011023,1.329211,16.563379,-62.521141,,,,,,,
1508183685.802207,0.047318,0.092838,-3.128370,0.004772,-0.005930,0.024731,0.047097,-0.092705,-0.994579,0.003257,-0.001000,0.014675,1.348427,16.555691,-62.522762,,,,,,,
1508183685.822212,0.047195,0.092824,-3.127787,-0.042355,0.016439,0.030840,0.046974,-0.092691,-0.994586,-0.009849,-0.009040,0.009708,1.362318,16.548765,-62.524296,,,,,,,
1508183685.842218,0.047385,0.091803,-3.127096,-0.048760,0.011114,0.030922,0.047168,-0.091674,-0.994671,-0.008227,-0.001877,0.006588,1.378879,16.583694,-62.514679,,,,,,,
1508183685.862224,0.046958,0.091362,-3.126275,0.004852,-0.010230,0.042923,0.046745,-0.091235,-0.994732,-0.010704,0.001849,0.003902,1.388646,16.641356,-62.499138,,,,,,,
1508183685.882228,0.046231,0.091739,-3.125511,-0.009144,0.004710,0.029922,0.046020,-0.091610,-0.994731,-0.012649,-0.008747,0.002116,1.359713,16.629379,-62.502964,,,,,,,
1508183685.902233,0.045951,0.091527,-3.124917,-0.019828,-0.003804,0.026854,0.045742,-0.091399,-0.994763,-0.011730,-0.006959,-0.003192,1.355420,16.630661,-62.502716,,,,,,,
1508183685.922239,0.045412,0.091310,-3.124462,-0.012333,-0.011253,0.021625,0.045207,-0.091183,-0.994808,-0.011058,-0.004322,-0.012700,1.325441,16.642300,-62.500259,,,,,,,
1508183685.942245,0.044704,0.090797,-3.124118,-0.025331,0.024995,0.006181,0.044505,-0.090672,-0.994886,-0.013942,0.003316,-0.007769,1.292344,16.668026,-62.494095,,,,,,,
1508183685.962234,0.045260,0.090518,-3.124209,0.007776,0.032468,-0.006747,0.045060,-0.090395,-0.994886,-0.000428,0.002809,-0.014635,1.305152,16.687820,-62.488548,,,,,,,
1508183685.982240,0.045638,0.090675,-3.124175,0.002587,-0.003780,0.009777,0.045435,-0.090551,-0.994855,0.010565,-0.002970,-0.012607,1.338400,16.691191,-62.486942,,,,,,,
1508183686.002260,0.045299,0.090724,-3.123851,0.000500,-0.012319,0.018433,0.045097,-0.090600,-0.994866,-0.007607,-0.001380,-0.001243,1.338210,16.688248,-62.487732,,,,,,,
1508183686.022267,0.045147,0.090822,-3.123538,0.004669,0.011122,0.010625,0.044945,-0.090697,-0.994864,-0.010262,-0.000352,-0.001642,1.328761,16.684053,-62.489056,,,,,,,
1508183686.042182,0.045175,0.091010,-3.123365,0.016468,-0.001658,0.007603,0.044973,-0.090885,-0.994845,-0.006613,0.003101,0.003070,1.325343,16.679132,-62.490440,,,,,,,
1508183686.062186,0.044647,0.091168,-3.123272,0.010081,-0.019754,0.001472,0.044447,-0.091042,-0.994855,-0.004468,-0.000282,-0.000262,1.310406,16.662964,-62.495068,,,,,,,
1508183686.082192,0.044030,0.091367,-3.123181,0.007957,-0.021891,0.004704,0.043832,-0.091240,-0.994864,-0.006951,-0.000999,-0.004862,1.285381,16.653339,-62.498154,,,,,,,
1508183686.102198,0.043698,0.091530,-3.123170,0.003605,-0.004833,-0.001938,0.043501,-0.091402,-0.994863,-0.004485,-0.002882,-0.001810,1.245632,16.639135,-62.502743,,,,,,,
1508183686.122200,0.043500,0.091491,-3.123217,0.015330,0.007950,-0.004265,0.043304,-0.091364,-0.994876,-0.003524,0.007456,-0.001249,1.230827,16.633303,-62.504589,,,,,,,
1508183686.142208,0.043846,0.091613,-3.123555,0.021659,0.019701,-0.021501,0.043648,-0.091485,-0.994849,0.000206,0.006830,-0.000207,1.237448,16.628210,-62.505814,,,,,,,
1508183686.162203,0.044795,0.091988,-3.124035,0.030194,0.032475,-0.017427,0.044590,-0.091858,-0.994773,0.009700,0.001374,0.000861,1.262115,16.622488,-62.506844,,,,,,,
1508183686.182220,0.045653,0.092845,-3.124142,0.043130,0.014306,0.005222,0.045441,-0.092711,-0.994656,0.007522,-0.002198,0.007091,1.327369,16.570969,-62.519165,,,,,,,
1508183686.202226,0.045728,0.093863,-3.124100,0.026057,-0.006984,0.000212,0.045510,-0.093726,-0.994557,-0.002038,-0.006357,0.017034,1.353070,16.508894,-62.535038,,,,,,,
1508183686.222231,0.045297,0.093973,-3.124178,-0.027424,-0.019744,-0.004895,0.045081,-0.093835,-0.994567,-0.004600,-0.011039,0.015120,1.345551,16.485165,-62.541458,,,,,,,
1508183686.242235,0.045054,0.093205,-3.124147,-0.023158,-0.006977,0.002381,0.044843,-0.093070,-0.994649,-0.000776,0.010825,0.002111,1.308754,16.508820,-62.536003,,,,,,,
1508183686.262242,0.044864,0.093124,-3.124089,0.026064,-0.005926,0.003395,0.044654,-0.092990,-0.994665,-0.001533,0.003024,-0.004419,1.298890,16.539589,-62.528076,,,,,,,
1508183686.282247,0.044782,0.093543,-3.124128,0.018533,-0.001646,-0.005192,0.044571,-0.093407,-0.994630,-0.000061,0.002373,-0.002013,1.293053,16.527678,-62.531345,,,,,,,
1508183686.302223,0.045202,0.093756,-3.124276,-0.006126,0.016466,-0.003303,0.044988,-0.093619,-0.994591,0.003702,-0.002542,0.000939,1.302611,16.497519,-62.539112,,,,,,,
1508183686.322231,0.045504,0.093592,-3.124277,-0.013535,-0.004847,0.002343,0.045289,-0.093456,-0.994593,0.011122,-0.003453,-0.003485,1.323208,16.502239,-62.537434,,,,,,,
1508183686.342264,0.045294,0.093618,-3.124069,0.016491,-0.028338,0.018656,0.045080,-0.093482,-0.994600,0.012491,0.001105,-0.004027,1.336942,16.512514,-62.534424,,,,,,,
1508183686.362268,0.044658,0.094039,-3.123847,0.003581,-0.019785,0.004680,0.044446,-0.093900,-0.994589,-0.004101,-0.007921,0.004019,1.299159,16.491524,-62.540764,,,,,,,
1508183686.382274,0.044949,0.094123,-3.123819,0.009808,0.038813,-0.001506,0.044735,-0.093984,-0.994568,-0.007580,0.000508,0.000595,1.294447,16.478474,-62.544300,,,,,,,
1508183686.402281,0.045829,0.094330,-3.124103,0.001251,0.023927,-0.014079,0.045609,-0.094190,-0.994509,0.007049,-0.005587,-0.004026,1.340126,16.461664,-62.547764,,,,,,,
1508183686.422286,0.046371,0.094773,-3.124056,0.032538,-0.024083,0.020715,0.046146,-0.094632,-0.994442,0.011318,-0.000492,-0.004123,1.382130,16.443428,-62.551647,,,,,,,
1508183686.442292,0.045528,0.095586,-3.123499,0.016595,-0.049664,0.030695,0.045305,-0.095441,-0.994404,0.007979,-0.009082,-0.000164,1.367805,16.409943,-62.560753,,,,,,,
1508183686.462297,0.044759,0.095627,-3.123066,-0.010371,0.001513,0.010779,0.044539,-0.095482,-0.994434,-0.013503,-0.003975,0.007191,1.315177,16.375200,-62.570984,,,,,,,
1508183686.482277,0.044940,0.095183,-3.123045,-0.009490,0.040968,-0.011119,0.044721,-0.095039,-0.994468,-0.005537,0.006722,0.003029,1.319951,16.396307,-62.565361,,,,,,,
1508183686.502307,0.046006,0.095032,-3.123346,0.014094,0.032431,-0.005682,0.045782,-0.094889,-0.994435,0.007837,0.004130,0.004307,1.363424,16.416817,-62.559048,,,,,,,
1508183686.522314,0.046402,0.095563,-3.123040,0.033598,-0.017697,0.023821,0.046173,-0.095418,-0.994366,0.007248,-0.000133,0.000836,1.408176,16.405596,-62.561001,,,,,,,
1508183686.542319,0.045510,0.096372,-3.122666,0.005801,-0.036844,0.013456,0.045283,-0.096223,-0.994329,-0.009440,-0.008590,0.006826,1.392223,16.349522,-62.576035,,,,,,,
1508183686.562324,0.044857,0.096115,-3.122622,-0.021208,0.024990,-0.009812,0.044635,-0.095967,-0.994383,-0.012485,0.001119,0.009062,1.338306,16.343786,-62.578709,,,,,,,
1508183686.582331,0.045689,0.095829,-3.122765,-0.007318,0.038822,-0.003626,0.045463,-0.095682,-0.994373,-0.002525,-0.000372,0.000950,1.340661,16.357664,-62.575031,,,,,,,
1508183686.602334,0.045910,0.095907,-3.122682,0.026112,-0.030459,0.013348,0.045683,-0.095760,-0.994356,0.010042,0.003734,-0.003691,1.389487,16.366779,-62.571587,,,,,,,
1508183686.622341,0.044931,0.096410,-3.122337,0.014351,-0.034716,0.012353,0.044707,-0.096261,-0.994352,-0.006942,-0.001243,0.003110,1.359650,16.339678,-62.579323,,,,,,,
1508183686.642335,0.044821,0.096421,-3.122229,-0.009380,0.020698,0.004103,0.044598,-0.096272,-0.994355,-0.007031,-0.001278,0.007905,1.334971,16.330719,-62.582191,,,,,,,
1508183686.662351,0.045341,0.096212,-3.122121,-0.009339,0.006851,0.004303,0.045116,-0.096063,-0.994352,0.011586,0.001078,-0.004793,1.353412,16.340559,-62.579224,,,,,,,
1508183686.682354,0.045453,0.096164,-3.121755,0.007948,-0.020900,0.030284,0.045228,-0.096016,-0.994352,0.004394,0.002037,-0.008319,1.385103,16.348091,-62.576565,,,,,,,
1508183686.702363,0.044786,0.096670,-3.121074,0.035857,-0.043290,0.036986,0.044562,-0.096519,-0.994333,0.007882,0.002068,-0.010763,1.379592,16.344393,-62.577652,,,,,,,
1508183686.722367,0.044063,0.097640,-3.120326,0.022970,-0.027307,0.036763,0.043839,-0.097485,-0.994271,-0.004120,-0.011204,-0.002448,1.343114,16.281296,-62.594894,,,,,,,
1508183686.742374,0.043630,0.098128,-3.119718,0.010019,-0.001717,0.025739,0.043406,-0.097971,-0.994242,-0.009135,-0.009619,-0.000066,1.328209,16.249084,-62.603577,,,,,,,
1508183686.762380,0.043508,0.098547,-3.119359,0.013218,-0.005964,0.018334,0.043283,-0.098387,-0.994206,-0.000711,-0.007677,-0.003459,1.319746,16.211266,-62.613564,,,,,,,
1508183686.782369,0.042982,0.099159,-3.118803,0.027247,-0.032623,0.030440,0.042758,-0.098997,-0.994169,0.000699,-0.000796,-0.020297,1.307524,16.173115,-62.623684,,,,,,,
1508183686.802389,0.042057,0.099973,-3.118298,0.041206,-0.049668,0.029610,0.041834,-0.099806,-0.994127,0.003026,-0.003404,-0.023726,1.277087,16.143408,-62.631977,,,,,,,
1508183686.822396,0.040977,0.100886,-3.117629,0.059421,-0.048624,0.038112,0.040757,-0.100715,-0.994080,0.006164,0.002266,-0.036422,1.227126,16.094955,-62.645443,,,,,,,
1508183686.842399,0.040307,0.102092,-3.116934,0.087196,-0.035843,0.035773,0.040086,-0.101914,-0.993985,0.006286,0.003404,-0.059985,1.178937,16.000019,-62.670685,,,,,,,
1508183686.862407,0.039855,0.104177,-3.116397,0.122471,-0.027322,0.032424,0.039628,-0.103989,-0.993789,0.013625,0.004944,-0.058900,1.159277,15.917234,-62.692127,,,,,,,
1508183686.882410,0.039622,0.106978,-3.115666,0.121432,-0.017769,0.050413,0.039385,-0.106774,-0.993503,0.008604,-0.012611,-0.058499,1.161472,15.766167,-62.730247,,,,,,,
1508183686.902417,0.038968,0.109884,-3.114398,0.162270,-0.047660,0.077473,0.038724,-0.109663,-0.993214,0.009754,-0.020189,-0.115123,1.161577,15.550610,-62.784031,,,,,,,
1508183686.922423,0.036965,0.114022,-3.112919,0.228847,-0.112681,0.090096,0.036716,-0.113775,-0.992828,0.021557,-0.037272,-0.164521,1.090656,15.313525,-62.843548,,,,,,,
1508183686.942429,0.033998,0.119474,-3.110931,0.295341,-0.135119,0.115962,0.033749,-0.119190,-0.992298,0.010547,-0.050533,-0.193829,0.992458,15.081867,-62.901169,,,,,,,
1508183686.962433,0.031405,0.126776,-3.108537,0.415171,-0.102177,0.140986,0.031148,-0.126437,-0.991486,-0.004415,-0.060651,-0.224014,0.838206,14.574955,-63.022797,,,,,,,
1508183686.982440,0.028542,0.136108,-3.105790,0.478505,-0.159734,0.150304,0.028274,-0.135688,-0.990348,0.008545,-0.059610,-0.248635,0.773182,14.158617,-63.118465,,,,,,,
1508183687.002446,0.024209,0.145938,-3.102789,0.498075,-0.239676,0.172774,0.023950,-0.145420,-0.989080,0.053962,-0.075741,-0.336619,0.612736,13.551883,-63.253269,,,,,,,
1508183687.022450,0.018974,0.156811,-3.098995,0.580474,-0.193978,0.215768,0.018740,-0.156170,-0.987552,0.067472,-0.062077,-0.374905,0.300756,12.738033,-63.424419,,,,,,,
1508183687.042455,0.014935,0.170425,-3.093281,0.739154,-0.153803,0.348354,0.014718,-0.169601,-0.985403,0.053642,-0.057190,-0.399454,0.183956,12.150210,-63.540096,,,,,,,
1508183687.062463,0.009638,0.187512,-3.084993,0.932280,-0.223283,0.444118,0.009469,-0.186415,-0.982425,0.056144,-0.054445,-0.427883,0.063936,11.185044,-63.717312,,,,,,,
1508183687.082467,0.001751,0.210027,-3.076284,1.240736,-0.352191,0.412700,0.001713,-0.208486,-0.978024,0.001583,-0.036662,-0.368396,-0.238798,9.572751,-63.978985,,,,,,,
1508183687.102460,-0.007157,0.237212,-3.068501,1.384043,-0.383013,0.359725,-0.006956,-0.234993,-0.971972,-0.012880,-0.041572,-0.335752,-0.521425,8.322197,-64.151962,,,,,,,
1508183687.122478,-0.017114,0.263558,-3.061741,1.279006,-0.420096,0.272905,-0.016522,-0.260517,-0.965328,-0.012500,-0.065121,-0.291279,-0.970745,6.570679,-64.349739,,,,,,,
1508183687.142483,-0.027836,0.287662,-3.056540,1.182629,-0.483826,0.192862,-0.026689,-0.283711,-0.958538,-0.028456,-0.031383,-0.235355,-1.648325,4.566242,-64.509209,,,,,,,
1508183687.162489,-0.037984,0.312337,-3.052052,1.315005,-0.397541,0.175517,-0.036137,-0.307284,-0.950932,-0.033855,0.012560,-0.213161,-2.096019,3.416348,-64.567329,,,,,,,
1508183687.182494,-0.046909,0.342470,-3.046096,1.647768,-0.321050,0.237070,-0.044168,-0.335815,-0.940892,-0.035467,0.081680,-0.201183,-2.593515,1.671993,-64.617981,,,,,,,
1508183687.202499,-0.056306,0.378739,-3.039354,1.895122,-0.411597,0.207275,-0.052288,-0.369749,-0.927659,0.034343,0.095534,-0.150191,-3.125182,-1.096554,-64.606781,,,,,,,
1508183687.222505,-0.067520,0.417403,-3.033210,1.959175,-0.433849,0.140372,-0.061676,-0.405387,-0.912062,0.044953,0.116096,-0.104250,-3.552634,-2.948313,-64.526672,,,,,,,
1508183687.242510,-0.078652,0.455380,-3.027471,1.873424,-0.423105,0.105093,-0.070564,-0.439804,-0.895317,0.006492,0.097137,-0.040779,-4.129280,-5.448086,-64.329407,,,,,,,
1508183687.262512,-0.088853,0.490424,-3.022713,1.669859,-0.413329,0.035794,-0.078277,-0.471000,-0.878653,0.031876,0.088142,0.019568,-4.802968,-8.377634,-63.966801,,,,,,,
1508183687.282521,-0.098794,0.520791,-3.020173,1.464042,-0.437597,-0.069267,-0.085557,-0.497567,-0.863196,0.046082,0.130242,0.038199,-5.349864,-10.386150,-63.627918,,,,,,,
1508183687.302519,-0.108336,0.550300,-3.018251,1.506785,-0.397166,-0.050692,-0.092161,-0.522943,-0.847371,0.013380,0.173089,0.076069,-5.758261,-11.782696,-63.348370,,,,,,,
1508183687.322532,-0.117273,0.583284,-3.013744,1.779606,-0.280244,0.042308,-0.097658,-0.550768,-0.828926,0.021212,0.234484,0.069923,-6.330786,-14.262829,-62.781353,,,,,,,
1508183687.342539,-0.127272,0.622660,-3.005746,2.097647,-0.302796,0.093579,-0.103108,-0.583198,-0.805760,0.077687,0.258033,0.095555,-6.688065,-16.645611,-62.154636,,,,,,,
1508183687.362544,-0.140544,0.666192,-2.996784,2.261556,-0.429486,0.036647,-0.110129,-0.617997,-0.778429,0.098975,0.271104,0.102052,-6.904535,-17.953726,-61.765656,,,,,,,
1508183687.382548,-0.153504,0.711863,-2.987639,2.312411,-0.282452,0.014217,-0.115769,-0.653246,-0.748243,0.031708,0.269106,0.260847,-7.651635,-22.100006,-60.316231,,,,,,,
1508183687.402555,-0.163936,0.756223,-2.976940,2.199651,-0.099288,0.056430,-0.118719,-0.686179,-0.717680,0.018545,0.237524,0.300780,-7.916066,-24.822136,-59.213196,,,,,,,
1508183687.422561,-0.173418,0.796620,-2.964867,1.953543,-0.050318,0.102821,-0.120635,-0.714997,-0.688641,0.020079,0.244248,0.282407,-7.980550,-26.101393,-58.651798,,,,,,,
1508183687.442543,-0.182948,0.830537,-2.952249,1.621712,0.011505,0.124566,-0.122708,-0.738294,-0.663223,0.010952,0.212720,0.335373,-8.135783,-29.390099,-57.052929,,,,,,,
1508183687.462568,-0.190847,0.858284,-2.941225,1.317731,0.004190,0.091845,-0.124008,-0.756722,-0.641868,-0.014069,0.210564,0.346458,-8.180865,-31.078365,-56.144577,,,,,,,
1508183687.482578,-0.197189,0.881058,-2.932864,1.089565,0.000143,0.013169,-0.124667,-0.771412,-0.624004,-0.018445,0.231083,0.342586,-8.206280,-31.790564,-55.740669,,,,,,,
1508183687.502582,-0.202617,0.899157,-2.927080,0.823243,-0.063664,-0.007032,-0.125222,-0.782803,-0.609540,-0.006675,0.172283,0.318891,-8.254492,-33.524197,-54.708290,,,,,,,
1508183687.522588,-0.207769,0.911191,-2.922159,0.490667,-0.060522,0.061415,-0.126408,-0.790234,-0.599626,-0.014629,0.114544,0.271669,-8.306535,-34.134590,-54.321602,,,,,,,
1508183687.542594,-0.212307,0.917464,-2.916783,0.290411,0.026814,0.093354,-0.128081,-0.794062,-0.594189,-0.026826,0.132502,0.245693,-8.410938,-34.617744,-53.998825,,,,,,,
1508183687.562598,-0.213992,0.922533,-2.913272,0.267602,0.059990,0.019315,-0.128225,-0.797134,-0.590031,-0.024119,0.148696,0.153263,-8.427269,-34.982651,-53.760586,,,,,,,
1508183687.582581,-0.213682,0.928180,-2.911862,0.282432,0.053699,-0.032854,-0.127085,-0.800531,-0.585662,-0.003255,0.109002,0.095473,-8.370466,-35.206055,-53.623447,,,,,,,
1508183687.602609,-0.214242,0.933376,-2.911324,0.250570,-0.029377,-0.034824,-0.126528,-0.803634,-0.581518,0.001543,0.091369,0.065741,-8.303905,-35.506737,-53.435215,,,,,,,
1508183687.622614,-0.215632,0.937922,-2.910599,0.195018,-0.051749,-0.026994,-0.126553,-0.806331,-0.577768,-0.013050,0.052073,0.019326,-8.317745,-35.836929,-53.212173,,,,,,,
1508183687.642621,-0.215580,0.941421,-2.911377,0.164707,0.005891,-0.082188,-0.125918,-0.808396,-0.575014,-0.003186,0.054535,0.004686,-8.337185,-35.983326,-53.110237,,,,,,,
1508183687.662627,-0.213384,0.944979,-2.913180,0.149603,0.038933,-0.090120,-0.124045,-0.810484,-0.572475,-0.019113,0.027495,0.000545,-8.264477,-36.173508,-52.992271,,,,,,,
1508183687.682630,-0.212547,0.947830,-2.913943,0.132390,0.047496,-0.110490,-0.123078,-0.812151,-0.570317,-0.016295,-0.005659,0.006200,-8.193758,-36.374714,-52.865372,,,,,,,
1508183687.702637,-0.209080,0.950573,-2.917647,0.092831,-0.001426,-0.144938,-0.120637,-0.813749,-0.568559,-0.018172,-0.016650,-0.000365,-8.095638,-36.490124,-52.800911,,,,,,,
1508183687.722644,-0.206589,0.952140,-2.921932,0.027779,-0.071724,-0.140671,-0.118959,-0.814659,-0.567609,-0.003569,-0.048119,-0.021426,-8.007533,-36.600315,-52.738045,,,,,,,
1508183687.742635,-0.203650,0.952381,-2.927767,-0.022670,-0.080123,-0.195959,-0.117250,-0.814798,-0.567765,-0.005125,-0.014365,-0.016967,-7.978149,-36.630737,-52.721375,,,,,,,
1508183687.762654,-0.197894,0.952693,-2.934791,-0.007014,0.057282,-0.192632,-0.113930,-0.814979,-0.568181,-0.007423,0.007163,-0.034389,-7.863638,-36.632141,-52.737602,,,,,,,
1508183687.782656,-0.192215,0.952905,-2.939499,0.141948,0.075178,-0.104500,-0.110669,-0.815102,-0.568649,0.008542,0.000282,-0.039109,-7.701366,-36.568798,-52.805466,,,,,,,
1508183687.802664,-0.190431,0.957572,-2.940953,0.259925,-0.006892,-0.095935,-0.108933,-0.817797,-0.565103,0.009736,-0.006468,-0.022253,-7.538027,-36.815842,-52.657166,,,,,,,
1508183687.822670,-0.188377,0.964288,-2.944126,0.295120,-0.037662,-0.160559,-0.106741,-0.821643,-0.559919,-0.001474,-0.031140,0.006376,-7.457850,-37.155575,-52.429466,,,,,,,
1508183687.842676,-0.185970,0.969756,-2.947654,0.215909,-0.006790,-0.140688,-0.104561,-0.824748,-0.555750,0.000985,-0.050115,0.013163,-7.399060,-37.392311,-52.269249,,,,,,,
1508183687.862679,-0.183483,0.976496,-2.950627,0.072558,0.018753,-0.111095,-0.102162,-0.828540,-0.550531,-0.003444,-0.048443,0.013253,-7.265172,-37.758095,-52.024502,,,,,,,
1508183687.882687,-0.179690,0.978164,-2.954868,0.044715,-0.003555,-0.138475,-0.099826,-0.829473,-0.549553,0.003177,-0.014765,-0.016029,-7.168742,-37.947266,-51.900089,,,,,,,
1508183687.902693,-0.174745,0.980025,-2.960627,0.078933,-0.000357,-0.142813,-0.096839,-0.830511,-0.548519,0.011588,-0.015146,-0.014713,-7.103036,-37.974129,-51.889477,,,,,,,
1508183687.922697,-0.171738,0.982670,-2.963338,0.147492,0.050618,-0.073228,-0.094813,-0.831982,-0.546642,0.011027,-0.016056,-0.014454,-6.900745,-38.138756,-51.795944,,,,,,,
1508183687.942677,-0.169732,0.986440,-2.964634,0.187146,0.034621,-0.068761,-0.093186,-0.834068,-0.543735,0.017853,-0.013634,-0.014401,-6.821346,-38.274261,-51.706436,,,,,,,
1508183687.962710,-0.169020,0.990546,-2.965908,0.201302,-0.049534,-0.069683,-0.092222,-0.836326,-0.540421,0.036039,-0.007531,-0.023376,-6.745690,-38.478813,-51.564346,,,,,,,
1508183687.982714,-0.166481,0.994147,-2.969241,0.180076,-0.060265,-0.024731,-0.090350,-0.838294,-0.537680,0.026110,-0.028634,-0.000848,-6.648594,-38.722286,-51.394417,,,,,,,
1508183688.002719,-0.168276,0.997184,-2.968076,0.135186,-0.028387,0.020692,-0.090888,-0.839946,-0.535004,0.018973,-0.018239,0.007996,-6.682990,-38.855576,-51.289253,,,,,,,
1508183688.022725,-0.169981,0.999564,-2.966495,0.134042,-0.006012,0.018235,-0.091462,-0.841235,-0.532877,0.015503,-0.004040,0.002405,-6.728623,-38.987885,-51.182762,,,,,,,
1508183688.042729,-0.169944,1.002572,-2.965779,0.163884,0.029144,0.013437,-0.091013,-0.842858,-0.530384,0.001505,0.006676,0.013432,-6.709501,-39.166313,-51.048874,,,,,,,
1508183688.062736,-0.170033,1.006099,-2.964615,0.177632,0.056887,-0.011501,-0.090557,-0.844751,-0.527443,0.008877,0.014932,0.019920,-6.689370,-39.297249,-50.950798,,,,,,,
1508183688.082742,-0.168928,1.008633,-2.964424,0.088827,0.054776,-0.010337,-0.089614,-0.846104,-0.525430,0.005889,0.013081,0.039591,-6.618533,-39.467514,-50.828293,,,,,,,
1508183688.102730,-0.168788,1.010412,-2.964084,-0.023288,-0.002758,0.009775,-0.089287,-0.847051,-0.523958,0.010522,0.027410,0.037584,-6.553524,-39.617691,-50.719769,,,,,,,
1508183688.122753,-0.168547,1.009235,-2.965237,-0.076884,-0.029270,-0.043116,-0.089328,-0.846425,-0.524962,0.008793,0.039403,0.020583,-6.572186,-39.585857,-50.742207,,,,,,,
1508183688.142733,-0.166111,1.008054,-2.967071,-0.052545,0.085728,-0.022410,-0.088214,-0.845795,-0.526164,-0.004742,0.048706,0.025508,-6.568328,-39.532593,-50.784218,,,,,,,
1508183688.162758,-0.165537,1.008008,-2.965685,0.081286,0.098405,0.012496,-0.087919,-0.845771,-0.526253,0.005247,0.076041,0.011543,-6.465023,-39.466488,-50.848843,,,,,,,
1508183688.182769,-0.163773,1.010104,-2.965360,0.093967,0.110197,-0.026072,-0.086701,-0.846887,-0.524657,0.007066,0.068536,0.031707,-6.394178,-39.541786,-50.799278,,,,,,,
1508183688.202761,-0.159719,1.010657,-2.966938,-0.037839,0.145434,-0.052075,-0.084499,-0.847181,-0.524542,0.005459,0.068891,0.078695,-6.251575,-39.626076,-50.751328,,,,,,,
1508183688.222771,-0.155008,1.008038,-2.969374,-0.203606,0.126280,-0.041010,-0.082369,-0.845787,-0.527124,0.016711,0.079155,0.099329,-6.028924,-39.534966,-50.849228,,,,,,,
1508183688.242786,-0.150999,1.003248,-2.971999,-0.249417,0.071939,-0.028458,-0.080864,-0.843221,-0.531450,-0.005241,0.109136,0.089464,-5.895350,-39.298805,-51.047562,,,,,,,
1508183688.262789,-0.147337,0.998448,-2.974848,-0.258048,0.066668,-0.055033,-0.079511,-0.840632,-0.535739,-0.019427,0.115686,0.111057,-5.849188,-39.174686,-51.148178,,,,,,,
1508183688.282796,-0.140796,0.992841,-2.979998,-0.323888,0.152021,-0.126600,-0.076665,-0.837581,-0.540907,-0.048854,0.166149,0.177992,-5.648275,-38.770954,-51.477329,,,,,,,
1508183688.302800,-0.128056,0.985630,-2.989204,-0.440391,0.323817,-0.259093,-0.070537,-0.833620,-0.547816,-0.051228,0.200914,0.210368,-5.414451,-38.513958,-51.694908,,,,,,,
1508183688.322807,-0.108989,0.975385,-3.002293,-0.620648,0.440061,-0.303296,-0.061006,-0.827918,-0.557522,-0.004821,0.212149,0.233776,-4.853651,-38.060291,-52.085136,,,,,,,
1508183688.342812,-0.089417,0.961452,-3.015538,-0.776810,0.413477,-0.307058,-0.051108,-0.820023,-0.570044,0.045676,0.272431,0.253851,-3.994950,-37.218449,-52.762039,,,,,,,
1508183688.362795,-0.071156,0.944964,-3.028454,-0.901952,0.383702,-0.317196,-0.041646,-0.810476,-0.584290,0.033498,0.288869,0.288346,-3.510125,-36.595390,-53.230270,,,,,,,
1508183688.382824,-0.050478,0.924930,-3.042842,-1.100576,0.514945,-0.402121,-0.030369,-0.798579,-0.601124,0.003895,0.334483,0.355823,-2.845282,-35.620472,-53.926727,,,,,,,
1508183688.402828,-0.024504,0.901038,-3.060056,-1.277973,0.656923,-0.530937,-0.015210,-0.783972,-0.620610,0.001554,0.422537,0.388753,-1.705399,-34.085293,-54.957161,,,,,,,
1508183688.422834,0.003589,0.873159,-3.078491,-1.474056,0.699665,-0.572996,0.002306,-0.766362,-0.642405,-0.000307,0.400960,0.403910,-0.869559,-32.995682,-55.637524,,,,,,,
1508183688.442841,0.029594,0.841104,-3.095217,-1.650489,0.652846,-0.576450,0.019726,-0.745379,-0.666349,-0.013607,0.412295,0.426832,0.272618,-31.314283,-56.606949,,,,,,,
1508183688.462845,0.053053,0.806997,-3.109762,-1.679172,0.616572,-0.544979,0.036678,-0.722213,-0.690697,-0.029384,0.359618,0.426705,1.634277,-28.918697,-57.844994,,,,,,,
1508183688.482851,0.068140,0.772733,-3.118188,-1.720207,0.276304,-0.309693,0.048751,-0.698094,-0.714344,-0.040221,0.253011,0.439167,2.347293,-27.441071,-58.536171,,,,,,,
1508183688.502857,0.066203,0.735074,-3.120138,-2.043927,-0.434464,-0.140263,0.049072,-0.670642,-0.740156,-0.104858,0.044574,0.403059,2.714053,-25.367998,-59.448326,,,,,,,
1508183688.522857,0.050010,0.680100,-3.119315,-3.273184,-0.899625,-0.159253,0.038867,-0.628870,-0.776538,-0.152789,-0.182394,0.344073,1.915512,-21.856066,-60.857605,,,,,,,
1508183688.542868,0.035186,0.592712,-3.121490,-5.099997,-0.678271,-0.356225,0.029178,-0.558612,-0.828915,-0.198429,-0.325283,0.132794,0.941069,-17.033886,-62.401653,,,,,,,
1508183688.562868,0.029004,0.465341,-3.126417,-7.137469,-0.368699,-0.428495,0.025917,-0.448728,-0.893293,-0.163108,-0.402820,0.066602,0.609796,-13.669870,-63.227905,,,,,,,
1508183688.582863,0.022091,0.298027,-3.132590,-8.832762,-0.336181,-0.497005,0.021115,-0.293635,-0.955684,-0.021115,-0.045217,0.017650,-0.159418,0.598959,-64.688644,,,,,,,
1508183688.602884,0.018635,0.123475,-3.136853,-8.252477,-0.201480,-0.277603,0.018492,-0.123161,-0.992214,-0.015959,0.215965,-0.218235,-0.538506,11.997742,-63.567043,,,,,,,
1508183688.622870,0.014721,-0.001523,-3.136941,-4.724816,-0.223022,-0.067743,0.014721,0.001523,-0.999891,0.114491,0.876041,-0.900698,-0.750147,19.113272,-61.799072,,,,,,,
1508183688.642891,0.015347,-0.040182,-3.138657,-0.456607,0.119112,-0.166543,0.015334,0.040171,-0.999075,0.122865,0.682897,-0.995905,-0.932718,24.539156,-59.849518,,,,,,,
1508183688.662901,0.015430,-0.024682,3.141430,1.146139,-0.114684,-0.112106,0.015425,0.024680,-0.999576,0.096300,0.185525,-0.864254,-0.927833,24.084923,-60.033829,,,,,,,
1508183688.682885,0.009817,-0.005385,3.139208,0.681248,-0.298878,-0.099489,0.009816,0.005385,-0.999937,0.077754,0.010011,-0.756166,-1.052231,23.385139,-60.307823,,,,,,,
1508183688.702889,0.009651,-0.003332,3.135635,-0.198193,0.229963,-0.232322,0.009650,0.003332,-0.999948,-0.019813,-0.076528,-0.493415,-1.491337,22.380482,-60.678619,,,,,,,
1508183688.722891,0.021656,-0.011230,3.130526,-0.408465,0.754148,-0.251496,0.021653,0.011230,-0.999702,0.001937,-0.027221,-0.475182,-1.213011,22.656033,-60.582485,,,,,,,
1508183688.742922,0.034902,-0.015112,3.126945,-0.018983,0.525859,-0.135449,0.034891,0.015111,-0.999277,0.146658,0.047694,-0.466528,-0.435170,23.085455,-60.430767,,,,,,,
1508183688.762917,0.038438,-0.009890,3.125782,0.396059,-0.008186,-0.005391,0.038427,0.009890,-0.999212,0.135966,-0.015108,-0.330301,0.077532,22.934885,-60.489586,,,,,,,
1508183688.782934,0.035970,-0.001462,3.125178,0.374902,-0.125294,-0.036732,0.035962,0.001462,-0.999352,0.061633,-0.043103,-0.249153,0.006747,22.545906,-60.635693,,,,,,,
1508183688.802920,0.036355,0.002321,3.123788,0.068073,0.112385,-0.064474,0.036346,-0.002321,-0.999337,-0.017883,-0.095153,-0.132133,-0.124261,22.137695,-60.785793,,,,,,,
1508183688.822945,0.038642,0.000399,3.123015,-0.147894,0.091059,-0.026682,0.038632,-0.000399,-0.999253,0.033038,-0.056775,-0.096816,0.009576,22.140104,-60.785038,,,,,,,
1508183688.842951,0.039359,-0.001402,3.123351,-0.028624,0.002472,0.044889,0.039349,0.001402,-0.999225,0.029117,-0.016539,-0.083142,0.068310,22.262829,-60.740162,,,,,,,
1508183688.862948,0.038805,0.001243,3.124740,0.226256,-0.032806,0.076132,0.038796,-0.001243,-0.999246,-0.007897,0.026985,-0.055121,0.085865,22.285942,-60.731663,,,,,,,
1508183688.882942,0.038569,0.007296,3.125271,0.310501,0.000313,0.016942,0.038559,-0.007296,-0.999230,-0.022766,0.011614,-0.007957,0.083870,21.865524,-60.884289,,,,,,,
1508183688.902967,0.039259,0.012186,3.125609,0.192755,0.050341,0.050427,0.039246,-0.012185,-0.999155,-0.021134,0.000650,0.006190,0.101602,21.602520,-60.978077,,,,,,,
1508183688.922964,0.037310,0.015560,3.127391,0.154590,-0.016864,0.099418,0.037297,-0.015560,-0.999183,-0.029805,0.000270,-0.007546,0.045625,21.365351,-61.061646,,,,,,,
1508183688.942951,0.036900,0.019892,3.128313,0.257047,-0.011407,0.021422,0.036885,-0.019891,-0.999122,-0.041889,0.027413,0.021521,0.062853,21.087851,-61.158024,,,,,,,
1508183688.962982,0.033829,0.024254,3.127853,0.344547,0.014226,-0.028059,0.033813,-0.024252,-0.999134,-0.044555,0.030721,0.035770,0.056594,20.829231,-61.246590,,,,,,,
1508183688.982973,0.034274,0.031570,3.127087,0.364896,0.013147,-0.023794,0.034250,-0.031565,-0.998915,-0.021738,0.028238,0.050505,-0.124521,20.517427,-61.351650,,,,,,,
1508183689.022997,0.032851,0.040463,3.126366,0.080838,-0.128552,0.025390,0.032818,-0.040452,-0.998642,0.016147,0.004258,0.041962,-0.146881,20.003944,-61.520935,,,,,,,
1508183689.002968,0.034746,0.037579,3.126367,0.252745,-0.052872,-0.020622,0.034715,-0.037570,-0.998691,0.014251,0.001376,0.042011,-0.146881,20.003944,-61.520935,,,,,,,
1508183689.042983,0.029273,0.040695,3.126983,-0.029176,-0.194574,0.027496,0.029245,-0.040684,-0.998744,0.017004,-0.004223,0.035777,-0.309823,19.720913,-61.611645,,,,,,,
1508183689.062996,0.026539,0.038834,3.127479,-0.217484,-0.204104,0.024574,0.026516,-0.038824,-0.998894,0.018100,-0.047144,0.039101,-0.520133,19.778397,-61.591801,,,,,,,
1508183689.083015,0.021880,0.031059,3.128259,-0.499821,-0.247726,0.033949,0.021868,-0.031054,-0.999278,0.044752,-0.062421,0.033946,-0.711636,20.040745,-61.505020,,,,,,,
1508183689.102999,0.015513,0.017649,3.129288,-0.769073,-0.382946,0.035046,0.015510,-0.017648,-0.999724,0.086708,-0.089148,-0.014390,-1.015028,20.697681,-61.282795,,,,,,,
1508183689.123003,0.004777,-0.003197,3.129240,-1.266208,-0.634032,-0.056907,0.004777,0.003197,-0.999983,0.111663,-0.153725,-0.070695,-1.686421,22.033169,-60.800495,,,,,,,
1508183689.143003,-0.010772,-0.040578,3.124889,-2.331211,-0.832422,-0.328337,-0.010763,0.040567,-0.999119,0.124426,-0.237833,-0.049877,-2.357059,23.371237,-60.276321,,,,,,,
1508183689.163016,-0.027830,-0.106342,3.113551,-3.847427,-0.745294,-0.560917,-0.027669,0.106142,-0.993966,0.152440,-0.409609,-0.041480,-3.535391,26.379900,-58.962761,,,,,,,
1508183689.183020,-0.042661,-0.190182,3.102173,-4.181687,-0.570177,-0.195332,-0.041879,0.189038,-0.981076,0.290383,0.043613,-0.250918,-4.946739,32.076027,-55.961269,,,,,,,
1508183689.203049,-0.052022,-0.258808,3.103335,-2.761071,-0.497157,0.400739,-0.050267,0.255928,-0.965388,0.356129,0.197654,-0.411153,-5.370005,35.332973,-53.923546,,,,,,,
1508183689.223055,-0.055713,-0.282411,3.112306,-0.115395,-0.174218,0.515629,-0.053478,0.278672,-0.958896,0.538357,0.498153,-0.677349,-5.534156,37.952061,-52.096252,,,,,,,
1508183689.243050,-0.050651,-0.252527,3.130111,2.386180,0.090462,1.017473,-0.049024,0.249852,-0.967042,0.608564,0.474697,-0.885497,-5.060515,37.295662,-52.615871,,,,,,,
1508183689.263065,-0.043042,-0.193647,-3.122197,3.169107,0.025372,1.508328,-0.042224,0.192439,-0.980400,0.531100,0.393850,-0.794731,-4.364456,35.208584,-54.095402,,,,,,,
1508183689.283063,-0.033676,-0.133503,-3.087163,2.985745,0.295667,1.658090,-0.033370,0.133106,-0.990540,0.361831,0.213680,-0.549347,-3.568603,32.703526,-55.702335,,,,,,,
1508183689.303067,-0.021704,-0.075664,-3.049187,2.958304,0.434731,1.902409,-0.021640,0.075592,-0.996904,0.125141,0.184113,-0.297148,-1.503768,27.709896,-58.437191,,,,,,,
1508183689.323082,-0.013437,-0.015356,-3.008848,3.102501,0.222601,1.958693,-0.013435,0.015355,-0.999792,0.071556,0.243968,-0.239329,-0.379132,25.084000,-59.629311,,,,,,,
1508183689.343079,-0.012587,0.047417,-2.969877,3.163954,-0.014812,1.884249,-0.012572,-0.047399,-0.998797,0.004149,0.266912,-0.087675,0.520312,22.279425,-60.731884,,,,,,,
1508183689.363076,-0.017663,0.108822,-2.931795,3.044297,-0.144621,1.824376,-0.017558,-0.108608,-0.993930,-0.184682,0.199626,0.135836,1.565902,16.400377,-62.558617,,,,,,,
1508183689.383098,-0.026242,0.166110,-2.895300,2.791419,-0.178372,1.687503,-0.025878,-0.165347,-0.985896,-0.259767,0.210834,0.220759,1.867432,12.600589,-63.425098,,,,,,,
1508183689.403078,-0.034005,0.217084,-2.860720,2.488714,0.029630,1.584481,-0.033200,-0.215383,-0.975965,-0.275027,0.241567,0.276289,1.960594,10.818352,-63.750488,,,,,,,
1508183689.423104,-0.040363,0.261645,-2.827509,2.154450,0.070368,1.496704,-0.038979,-0.258670,-0.965179,-0.311012,0.237674,0.383667,2.403367,6.013915,-64.366623,,,,,,,
1508183689.443115,-0.047835,0.300011,-2.797283,1.877765,0.025091,1.267247,-0.045681,-0.295531,-0.954240,-0.306598,0.269087,0.405519,2.572136,3.945789,-64.519920,,,,,,,
1508183689.463106,-0.055135,0.331859,-2.772543,1.511975,0.026798,0.991325,-0.052100,-0.325801,-0.944002,-0.300988,0.242626,0.445985,2.671142,1.518269,-64.618614,,,,,,,
1508183689.483101,-0.060367,0.358338,-2.751459,1.306957,0.135698,0.893932,-0.056498,-0.350718,-0.934775,-0.353948,0.233638,0.464042,2.771778,-0.912682,-64.625763,,,,,,,
1508183689.503124,-0.063776,0.380623,-2.732464,1.077255,0.195736,0.730090,-0.059172,-0.371499,-0.926546,-0.357774,0.236733,0.462190,2.896231,-2.163620,-64.590523,,,,,,,
1508183689.523134,-0.064759,0.397887,-2.719343,0.792783,0.195302,0.449872,-0.059659,-0.387471,-0.919949,-0.320896,0.211125,0.464597,3.108494,-3.549681,-64.519318,,,,,,,
1508183689.543129,-0.064426,0.409833,-2.711236,0.521588,0.158443,0.271471,-0.059050,-0.398457,-0.915284,-0.292742,0.172245,0.455186,3.370381,-4.747396,-64.429092,,,,,,,
1508183689.563148,-0.063156,0.417165,-2.707352,0.278120,0.130141,0.071600,-0.057702,-0.405170,-0.912418,-0.297187,0.170246,0.440601,3.500409,-5.210747,-64.386337,,,,,,,
1508183689.583132,-0.059902,0.419324,-2.708477,0.009918,0.147644,-0.124652,-0.054679,-0.407143,-0.911726,-0.290078,0.152184,0.415678,3.667808,-5.525118,-64.350800,,,,,,,
1508183689.603157,-0.055094,0.417793,-2.712897,-0.137060,0.154294,-0.235534,-0.050330,-0.405745,-0.912600,-0.251123,0.171797,0.376314,3.926884,-5.467161,-64.340462,,,,,,,
1508183689.623164,-0.048658,0.414091,-2.720122,-0.238209,0.183375,-0.383029,-0.044528,-0.402358,-0.914399,-0.246045,0.171310,0.362305,4.106591,-5.292891,-64.343811,,,,,,,
1508183689.643160,-0.040955,0.408416,-2.731438,-0.361752,0.135857,-0.576314,-0.037576,-0.397156,-0.916981,-0.220710,0.158646,0.325200,4.310708,-5.039261,-64.350822,,,,,,,
1508183689.663170,-0.033406,0.398835,-2.746337,-0.597393,0.069068,-0.707390,-0.030778,-0.388345,-0.921000,-0.167113,0.089089,0.248774,4.627739,-4.191679,-64.389587,,,,,,,
1508183689.683181,-0.026690,0.384041,-2.762895,-0.865902,-0.017039,-0.762454,-0.024743,-0.374670,-0.926828,-0.162376,0.082922,0.213144,4.720549,-3.502247,-64.424034,,,,,,,
1508183689.703188,-0.021884,0.364262,-2.780359,-1.078682,-0.119162,-0.805598,-0.020446,-0.356260,-0.934163,-0.149292,0.095808,0.159276,4.739832,-2.612803,-64.464813,,,,,,,
1508183689.723194,-0.017870,0.342821,-2.798846,-1.051149,-0.094535,-0.872087,-0.016829,-0.336145,-0.941660,-0.139101,0.203195,0.114801,4.564332,-0.431870,-64.528954,,,,,,,
1508183689.743198,-0.012975,0.325370,-2.818317,-0.768866,-0.070019,-0.915306,-0.012293,-0.319659,-0.947453,-0.135946,0.208285,0.090534,4.482530,0.588766,-64.533447,,,,,,,
1508183689.763186,-0.008643,0.312995,-2.837178,-0.580281,-0.105311,-0.869085,-0.008223,-0.307910,-0.951380,-0.104844,0.163729,0.093729,4.401241,1.397226,-64.526596,,,,,,,
1508183689.783181,-0.007938,0.300976,-2.855874,-0.650358,-0.339556,-0.913619,-0.007581,-0.296452,-0.955018,-0.079195,0.074849,0.049424,4.057680,2.671015,-64.508957,,,,,,,
1508183689.803214,-0.009924,0.286857,-2.876125,-0.714668,-0.379880,-0.983361,-0.009518,-0.282939,-0.959091,-0.134937,0.103694,0.068847,3.504606,3.643738,-64.493767,,,,,,,
1508183689.823214,-0.009119,0.275799,-2.896994,-0.428644,-0.157260,-1.012396,-0.008774,-0.272316,-0.962168,-0.158051,0.131096,0.070719,3.237339,4.124590,-64.478775,,,,,,,
1508183689.843209,-0.004747,0.273685,-2.918799,0.082375,-0.051832,-1.061225,-0.004571,-0.270281,-0.962771,-0.057411,0.111010,0.047991,2.799251,4.896717,-64.445259,,,,,,,
1508183689.863231,-0.001799,0.279649,-2.940799,0.378317,-0.257495,-1.061664,-0.001729,-0.276018,-0.961151,-0.026561,0.021501,0.055786,2.566746,4.668858,-64.471848,,,,,,,
1508183689.883211,-0.005398,0.285530,-2.963178,0.136428,-0.634466,-1.092269,-0.005179,-0.281666,-0.959498,-0.018640,-0.044231,0.076518,2.322207,4.447027,-64.496796,,,,,,,
1508183689.903237,-0.014968,0.275332,-2.987189,-1.003935,-0.840658,-1.181192,-0.014404,-0.271866,-0.962227,0.048523,-0.276458,0.052483,0.877894,4.602198,-64.521736,,,,,,,
1508183689.923222,-0.022955,0.240385,-3.012665,-2.161239,-0.657132,-1.189383,-0.022293,-0.238077,-0.970991,0.065658,-0.285514,0.026380,0.013266,5.898984,-64.422096,,,,,,,
1508183689.943239,-0.030280,0.185853,-3.038796,-3.146910,-0.653606,-1.231346,-0.029754,-0.184785,-0.982329,0.074920,-0.236907,-0.065615,-1.003703,8.811877,-64.080795,,,,,,,
1508183689.963234,-0.039378,0.107251,-3.069358,-4.568461,-0.768835,-1.494118,-0.039142,-0.107045,-0.993483,0.219165,-0.218623,-0.184709,-2.406261,14.282478,-63.049393,,,,,,,
1508183689.983232,-0.060013,-0.006069,-3.109435,-6.451317,-1.266265,-1.808581,-0.059975,0.006069,-0.998181,0.295586,-0.289364,-0.185397,-3.678498,18.930885,-61.750263,,,,,,,
1508183690.003268,-0.077130,-0.129028,3.137839,-5.559682,-0.301182,-0.844381,-0.076413,0.128670,-0.988739,0.295071,0.018379,-0.040878,-5.841459,26.528135,-58.712357,,,,,,,
1508183690.023262,-0.080278,-0.190660,3.131080,-1.411425,-0.166804,0.156080,-0.078739,0.189507,-0.978717,0.302189,0.933586,-0.791424,-6.550031,32.935902,-55.293118,,,,,,,
1508183690.043280,-0.084254,-0.175494,3.131457,1.627370,-0.184873,-0.244734,-0.082862,0.174595,-0.981148,0.452491,0.749630,-0.750389,-6.654422,33.280094,-55.074127,,,,,,,
1508183690.063265,-0.087231,-0.135006,3.127429,2.006718,-0.128291,-0.354602,-0.086328,0.134596,-0.987133,0.401163,0.266298,-0.495213,-6.915489,31.949551,-55.824791,,,,,,,
1508183690.083290,-0.088657,-0.105631,3.127523,1.048673,0.036311,0.020134,-0.088047,0.105435,-0.990521,0.052662,-0.221432,-0.176624,-7.356287,28.798267,-57.459114,,,,,,,
1508183690.103296,-0.079291,-0.096698,3.130147,0.206891,0.701117,0.075102,-0.078838,0.096548,-0.992201,0.033504,-0.244405,-0.099825,-7.153535,28.132729,-57.813335,,,,,,,
1508183690.123292,-0.063894,-0.092851,3.130393,0.268627,0.694923,-0.031484,-0.063575,0.092718,-0.993661,0.059181,-0.080022,-0.089225,-6.530880,27.940945,-57.979794,,,,,,,
1508183690.143297,-0.056641,-0.084827,3.129951,0.434902,0.172952,-0.048564,-0.056407,0.084725,-0.994806,0.094890,-0.083611,-0.067571,-2.934859,24.590237,-58.681782,,,,,,,
1508183690.163313,-0.056046,-0.077531,3.129305,0.289857,-0.002753,-0.059769,-0.055848,0.077453,-0.995431,0.051331,-0.087371,-0.035209,-2.864973,24.221128,-58.838539,,,,,,,
1508183690.183291,-0.055381,-0.074931,3.127951,0.023119,0.071925,-0.081978,-0.055197,0.074861,-0.995665,-0.030862,-0.078706,0.015029,-2.884737,23.915684,-58.962383,,,,,,,
1508183690.203296,-0.052520,-0.076662,3.126103,-0.130265,0.187024,-0.089930,-0.052341,0.076587,-0.995688,-0.006634,-0.048511,0.012396,-2.777157,23.945221,-58.955566,,,,,,,
1508183690.223330,-0.049461,-0.078951,3.124374,-0.094717,0.133705,-0.065725,-0.049287,0.078869,-0.995666,0.010133,-0.005749,-0.004746,-2.614745,24.090944,-58.903599,,,,,,,
1508183690.243319,-0.047347,-0.078999,3.123775,0.059672,0.090950,-0.011906,-0.047182,0.078917,-0.995764,0.009340,0.021212,-0.011194,-2.552844,24.137342,-58.887318,,,,,,,
1508183690.263314,-0.046174,-0.076404,3.123687,0.157151,0.049393,-0.017774,-0.046023,0.076330,-0.996020,0.009280,0.035425,-0.022108,-2.418236,24.014570,-58.943172,,,,,,,
1508183690.283320,-0.044999,-0.073274,3.123325,0.139905,0.068561,-0.021241,-0.044863,0.073209,-0.996307,0.005831,0.026462,-0.017639,-2.379820,23.870260,-59.003323,,,,,,,
1508183690.303347,-0.043343,-0.070783,3.123589,0.127155,0.086584,0.023292,-0.043221,0.070724,-0.996559,0.001107,0.013658,-0.010201,-2.301658,23.709072,-59.071377,,,,,,,
1508183690.323342,-0.041495,-0.067700,3.124342,0.174258,0.085497,0.028604,-0.041389,0.067648,-0.996850,0.003715,0.018137,0.000223,-2.154463,23.504517,-59.158604,,,,,,,
1508183690.343363,-0.040159,-0.063781,3.125135,0.202203,0.052452,0.036526,-0.040067,0.063737,-0.997162,-0.006808,0.007475,0.006470,-2.076440,23.340155,-59.226433,,,,,,,
1508183690.363344,-0.039116,-0.060030,3.125895,0.181836,0.046099,0.019573,-0.039035,0.059994,-0.997435,-0.024380,-0.017544,0.025405,-1.996063,23.106256,-59.320835,,,,,,,
1508183690.383370,-0.038357,-0.056611,3.126091,0.157220,0.031222,0.004879,-0.038286,0.056581,-0.997664,-0.010389,-0.021394,0.008330,-1.925817,22.841276,-59.425686,,,,,,,
1508183690.403380,-0.037906,-0.053914,3.126413,0.126248,0.017370,0.010434,-0.037842,0.053888,-0.997830,-0.002334,-0.018594,0.003933,-1.897994,22.709850,-59.476929,,,,,,,
1508183690.423372,-0.037359,-0.050098,3.126939,0.103928,-0.007170,0.033199,-0.037303,0.050077,-0.998048,0.002254,-0.010129,0.005953,-1.877121,22.597767,-59.520264,,,,,,,
1508183690.443367,-0.038333,-0.049290,3.128145,-0.015555,-0.087111,0.072835,-0.038277,0.049270,-0.998052,0.006279,-0.053299,-0.014552,-1.863258,22.352448,-59.613262,,,,,,,
1508183690.463396,-0.041139,-0.052940,3.129329,-0.289318,-0.160517,0.059177,-0.041070,0.052915,-0.997754,0.004327,-0.066892,-0.025088,-1.941678,22.423529,-59.584057,,,,,,,
1508183690.483401,-0.046242,-0.052790,3.130321,-0.601561,-0.193520,0.085482,-0.046161,0.052766,-0.997539,-0.014614,-0.094605,-0.083531,-2.064669,22.685097,-59.480824,,,,,,,
1508183690.503381,-0.051036,-0.070459,3.131460,-1.109451,-0.304215,0.104530,-0.050887,0.070401,-0.996220,-0.023896,-0.179715,-0.242489,-2.471344,23.284063,-59.233349,,,,,,,
1508183690.523412,-0.062166,-0.107138,3.129953,-2.370372,-0.722194,-0.066535,-0.061770,0.106933,-0.992346,-0.005430,-0.267715,-0.307322,-2.785818,24.495708,-58.728565,,,,,,,
1508183690.543410,-0.082764,-0.173377,3.119150,-3.778764,-1.001371,-0.380254,-0.081430,0.172509,-0.981636,-0.011069,-0.282662,-0.430046,-3.755253,27.499475,-57.328194,,,,,,,
1508183690.563395,-0.100425,-0.248995,3.107156,-3.582318,-0.566258,-0.121202,-0.097164,0.246430,-0.964278,-0.180866,0.251800,-0.511247,-5.244591,32.783375,-54.356133,,,,,,,
1508183690.583428,-0.101422,-0.291526,3.102218,-0.997047,0.304186,0.013517,-0.096976,0.287414,-0.952885,-0.030008,0.680756,-1.010708,-5.498563,35.753235,-52.424393,,,,,,,
1508183690.603415,-0.092625,-0.265595,3.108322,2.565175,0.240971,0.283668,-0.089249,0.262483,-0.960800,0.080125,0.768355,-1.198227,-5.303738,36.026146,-52.257362,,,,,,,
1508183690.623421,-0.093725,-0.191415,3.120958,4.179325,-0.407946,0.176707,-0.091878,0.190248,-0.977427,0.001821,0.458480,-0.939580,-4.879178,31.734699,-55.008614,,,,,,,
1508183690.643446,-0.101205,-0.106493,3.128380,4.191931,-0.318893,-0.144484,-0.100460,0.106292,-0.989247,-0.159992,0.226441,-0.633769,-5.368103,26.945309,-57.462845,,,,,,,
1508183690.663423,-0.098706,-0.027701,3.133843,3.811282,0.360723,-0.095408,-0.098508,0.027697,-0.994751,-0.216632,0.194913,-0.492401,-5.544976,24.532734,-58.517033,,,,,,,
1508183690.683449,-0.087054,0.047461,3.139318,3.804112,0.642960,-0.069639,-0.086846,-0.047443,-0.995091,-0.032905,0.233814,-0.300883,-4.920471,17.652012,-61.000332,,,,,,,
1508183690.703460,-0.078318,0.127815,-3.139525,4.151599,0.278741,-0.158453,-0.077600,-0.127467,-0.988802,0.090692,0.304103,-0.171613,-4.275079,12.791008,-62.249168,,,,,,,
1508183690.723452,-0.078773,0.213993,-3.136083,4.360409,-0.125051,-0.150621,-0.076897,-0.212363,-0.974161,0.104790,0.329917,-0.085028,-4.157919,10.163177,-62.739670,,,,,,,
1508183690.743447,-0.084213,0.299925,-3.131370,4.229245,-0.235880,-0.111595,-0.080359,-0.295449,-0.951973,0.023764,0.265770,0.187309,-4.420533,1.934130,-63.510338,,,,,,,
1508183690.763463,-0.088674,0.381243,-3.126005,3.968729,-0.040929,-0.085436,-0.082200,-0.372074,-0.924556,0.029938,0.279164,0.324001,-4.650148,-3.331133,-63.435986,,,,,,,
1508183690.783480,-0.089445,0.455925,-3.119412,3.586411,0.155002,-0.001620,-0.080202,-0.440293,-0.894265,0.038576,0.323258,0.367516,-4.652470,-5.825520,-63.255535,,,,,,,
1508183690.803475,-0.089929,0.521538,-3.111009,3.133117,0.162305,0.131901,-0.077869,-0.498214,-0.863550,0.086230,0.313293,0.503779,-4.379248,-12.471363,-62.306755,,,,,,,
1508183690.823495,-0.094842,0.578775,-3.100912,2.739130,-0.103953,0.156318,-0.079276,-0.546999,-0.833371,0.090675,0.372972,0.488889,-4.301475,-15.285089,-61.682316,,,,,,,
1508183690.843477,-0.105151,0.627411,-3.093015,2.265464,-0.370950,0.027258,-0.084969,-0.587051,-0.805079,0.095848,0.392944,0.517313,-4.527202,-18.557899,-60.761448,,,,,,,
1508183690.863493,-0.114642,0.666228,-3.088842,1.771598,-0.292856,-0.076935,-0.089929,-0.618025,-0.780998,0.060434,0.377333,0.628105,-5.067553,-21.773949,-59.641094,,,,,,,
1508183690.883512,-0.119727,0.698075,-3.085663,1.522817,-0.059608,-0.026816,-0.091502,-0.642744,-0.760597,0.044413,0.412947,0.625786,-5.253940,-23.285408,-59.051083,,,,,,,
1508183690.903506,-0.122574,0.726477,-3.077827,1.379441,0.194549,0.208457,-0.091397,-0.664240,-0.741911,0.028073,0.407602,0.644178,-5.297135,-24.633265,-58.497757,,,,,,,
1508183690.923500,-0.125605,0.750046,-3.067052,1.121613,0.207339,0.237255,-0.091659,-0.681672,-0.725894,0.007934,0.360612,0.663501,-5.144053,-26.932224,-57.489468,,,,,,,
1508183690.943528,-0.127441,0.767541,-3.059708,0.747884,0.149121,0.098694,-0.091461,-0.694368,-0.713785,-0.000854,0.354325,0.676721,-5.069858,-27.810997,-57.076172,,,,,,,
1508183690.963524,-0.124562,0.776510,-3.058203,0.268829,0.225189,-0.059862,-0.088628,-0.700794,-0.707837,-0.021464,0.314258,0.727780,-4.980140,-28.440300,-56.773163,,,,,,,
1508183690.983528,-0.117050,0.776379,-3.060989,-0.180981,0.316982,-0.094978,-0.083320,-0.700700,-0.708574,-0.002923,0.271898,0.677186,-4.526124,-28.812149,-56.623489,,,,,,,
1508183691.003544,-0.107189,0.767936,-3.064694,-0.574962,0.391634,-0.088301,-0.076958,-0.694652,-0.715217,-0.004127,0.278148,0.649925,-4.085040,-28.438576,-56.845444,,,,,,,
1508183691.023531,-0.095043,0.752671,-3.070303,-0.894121,0.415279,-0.153448,-0.069265,-0.683591,-0.726572,-0.011409,0.273373,0.578073,-3.696214,-27.880310,-57.147800,,,,,,,
1508183691.043499,-0.081993,0.731702,-3.077723,-1.159561,0.401563,-0.186106,-0.060938,-0.668137,-0.741539,-0.005804,0.214646,0.465217,-2.999070,-26.505688,-57.838558,,,,,,,
1508183691.063504,-0.068498,0.707697,-3.084581,-1.232438,0.476081,-0.153010,-0.052008,-0.650085,-0.758079,-0.008813,0.210571,0.379768,-2.408375,-25.121552,-58.480358,,,,,,,
1508183691.083502,-0.054289,0.682821,-3.091153,-1.282979,0.507082,-0.201405,-0.042096,-0.630984,-0.774653,-0.008624,0.208346,0.353999,-2.088224,-24.400127,-58.797260,,,,,,,
1508183691.103497,-0.040698,0.655800,-3.098496,-1.414393,0.405977,-0.230763,-0.032247,-0.609793,-0.791904,0.021780,0.178061,0.212726,-1.084048,-22.090214,-59.730164,,,,,,,
1508183691.123501,-0.028563,0.626870,-3.106522,-1.447694,0.373102,-0.300637,-0.023129,-0.586612,-0.809537,0.003415,0.167408,0.207838,-0.662441,-20.795925,-60.199131,,,,,,,
1508183691.143500,-0.013848,0.600423,-3.115527,-1.245100,0.551064,-0.359884,-0.011426,-0.564992,-0.825018,-0.046390,0.232716,0.219488,-0.059470,-19.079334,-60.768578,,,,,,,
1508183691.163525,0.004576,0.577916,-3.124709,-1.090390,0.685276,-0.375809,0.003833,-0.546280,-0.837594,0.048978,0.214477,0.141854,1.031220,-17.253345,-61.303375,,,,,,,
1508183691.183538,0.018861,0.552726,-3.132651,-1.384592,0.358220,-0.323928,0.016051,-0.525009,-0.850945,0.093598,0.101975,0.092873,1.699148,-16.191559,-61.577522,,,,,,,
1508183691.203528,0.024080,0.521655,-3.136575,-1.619524,0.052158,-0.124180,0.020875,-0.498315,-0.866744,0.115187,0.061288,0.020828,2.186929,-14.426697,-61.999458,,,,,,,
1508183691.223523,0.023358,0.490460,-3.137179,-1.458511,-0.047079,-0.058883,0.020603,-0.471032,-0.881876,-0.062320,0.194787,-0.049475,0.578103,-9.551357,-63.135761,,,,,,,
1508183691.243554,0.027437,0.465744,-3.139161,-1.102449,0.279024,-0.174775,0.024511,-0.449087,-0.893152,-0.082037,0.178717,-0.035651,0.619703,-8.252510,-63.318237,,,,,,,
1508183691.263556,0.036074,0.443659,3.137566,-1.168416,0.265644,-0.400587,0.032575,-0.429248,-0.902599,0.001330,0.057681,-0.149662,0.998006,-6.854450,-63.479980,,,,,,,
1508183691.283551,0.041975,0.415112,3.130246,-1.565645,0.029133,-0.343547,0.038399,-0.403293,-0.914265,0.047722,-0.077435,-0.154110,1.403863,-4.823780,-63.658836,,,,,,,
1508183691.303553,0.039512,0.377539,3.127147,-2.069196,-0.291727,-0.167908,0.036720,-0.368634,-0.928849,0.049401,-0.112094,-0.139526,1.403863,-4.823780,-63.658836,,,,,,,
1508183691.323563,0.031639,0.326090,3.124361,-2.919577,-0.524571,-0.282252,0.029966,-0.320342,-0.946828,-0.026426,-0.228578,-0.188411,1.089582,-1.216038,-63.835896,,,,,,,
1508183691.343568,0.021391,0.254523,3.117157,-3.966511,-0.654840,-0.529092,0.020700,-0.251784,-0.967562,-0.016077,-0.247667,-0.261076,0.044947,4.638123,-63.688091,,,,,,,
1508183691.363587,0.006339,0.154379,3.105153,-5.746695,-1.023602,-0.743133,0.006263,-0.153766,-0.988087,-0.016090,-0.366589,-0.268413,-0.709209,8.762675,-63.248711,,,,,,,
1508183691.383593,-0.011806,0.015875,3.088118,-7.495802,-0.919638,-0.842495,-0.011804,-0.015875,-0.999804,0.000543,-0.373087,-0.211698,-1.778540,14.158512,-62.241951,,,,,,,
1508183691.403576,-0.021344,-0.123392,3.073004,-6.081426,-0.070672,-0.474132,-0.021181,0.123079,-0.992171,-0.018340,0.682783,-0.476930,-3.621877,27.116642,-57.699715,,,,,,,
1508183691.423604,-0.013432,-0.180607,3.069848,-0.788800,0.554220,0.129157,-0.013213,0.179626,-0.983646,0.034683,1.050843,-0.786709,-3.477081,31.829769,-55.249096,,,,,,,
1508183691.443599,-0.009890,-0.150998,3.073156,2.210192,-0.094094,0.079795,-0.009777,0.150425,-0.988573,0.205868,0.846112,-1.094694,-3.065617,31.563763,-55.425789,,,,,,,
1508183691.463602,-0.015162,-0.109580,3.073283,1.764188,-0.294012,-0.037463,-0.015070,0.109361,-0.993888,0.055567,-0.095994,-0.473397,-3.267552,28.567028,-57.016972,,,,,,,
1508183691.483618,-0.017325,-0.088407,3.073144,0.664116,0.107815,-0.016874,-0.017257,0.088292,-0.995945,-0.160707,-0.146458,-0.246700,-3.522726,27.034542,-57.744358,,,,,,,
1508183691.503607,-0.004629,-0.081433,3.072472,0.295696,0.901577,-0.052634,-0.004614,0.081343,-0.996675,-0.149057,-0.135390,-0.175535,-3.401449,26.705946,-57.904316,,,,,,,
1508183691.523631,0.013144,-0.071265,3.072035,0.665561,0.731993,0.007128,0.013110,0.071204,-0.997376,0.096708,-0.015006,-0.161804,-1.962800,26.037363,-58.274269,,,,,,,
1508183691.543619,0.017789,-0.054516,3.072617,0.878846,-0.052175,0.058860,0.017762,0.054489,-0.998356,0.107375,-0.078582,-0.088085,-1.449045,25.121836,-58.689697,,,,,,,
1508183691.563641,0.012562,-0.039576,3.073120,0.631135,-0.279992,0.018631,0.012552,0.039566,-0.999138,0.048392,-0.084701,-0.034858,-1.505327,24.614748,-58.902763,,,,,,,
1508183691.583642,0.010036,-0.031403,3.073287,0.266525,-0.017844,0.014037,0.010031,0.031398,-0.999457,-0.070975,-0.096340,0.061011,-1.889127,23.579983,-59.313599,,,,,,,
1508183691.603647,0.012506,-0.029649,3.073719,0.017800,0.160078,0.030837,0.012500,0.029645,-0.999482,-0.031650,-0.085461,0.060350,-1.836074,23.417614,-59.379555,,,,,,,
1508183691.623633,0.013837,-0.028922,3.075165,0.074178,-0.015832,0.097323,0.013830,0.028918,-0.999486,0.046625,-0.017169,0.025396,-1.654838,23.391712,-59.395088,,,,,,,
1508183691.643664,0.011655,-0.025821,3.077522,0.199835,-0.142678,0.123594,0.011651,0.025819,-0.999599,0.018440,0.052841,0.016292,-1.675495,23.238249,-59.454720,,,,,,,
1508183691.663670,0.009472,-0.020866,3.079299,0.255121,-0.075485,0.074594,0.009470,0.020865,-0.999737,-0.003549,0.061212,0.025830,-1.758375,23.040142,-59.529377,,,,,,,
1508183691.683661,0.009313,-0.016258,3.080928,0.208880,0.022491,0.093468,0.009311,0.016257,-0.999824,0.007931,0.022652,0.046455,-1.795671,22.745825,-59.641346,,,,,,,
1508183691.703673,0.009826,-0.012778,3.083176,0.153414,0.009636,0.136348,0.009825,0.012778,-0.999870,0.052995,0.000879,0.035255,-1.705245,22.460363,-59.752083,,,,,,,
1508183691.723687,0.009573,-0.009834,3.086854,0.136626,-0.027780,0.205146,0.009573,0.009834,-0.999906,0.062083,0.010475,0.038205,-1.653366,22.328878,-59.802799,,,,,,,
1508183691.743681,0.008117,-0.008678,3.090931,-0.011885,-0.104440,0.205303,0.008116,0.008678,-0.999929,0.076570,0.010991,0.041494,-1.613751,22.215025,-59.846268,,,,,,,
1508183691.763684,0.004532,-0.011314,3.095607,-0.187897,-0.240835,0.250065,0.004532,0.011314,-0.999926,0.137039,-0.019249,0.012407,-1.689860,22.296408,-59.813892,,,,,,,
1508183691.783704,-0.001846,-0.016506,3.100754,-0.314926,-0.336690,0.257949,-0.001846,0.016506,-0.999862,0.158905,-0.024715,-0.034058,-1.859625,22.494278,-59.734718,,,,,,,
1508183691.803687,-0.007557,-0.024545,3.106910,-0.438920,-0.276133,0.354197,-0.007555,0.024542,-0.999670,0.205492,-0.022253,-0.150415,-2.121972,22.902643,-59.570572,,,,,,,
1508183691.823712,-0.012259,-0.032791,3.115003,-0.362890,-0.218768,0.423684,-0.012252,0.032785,-0.999387,0.265639,0.001608,-0.221331,-2.295971,23.555733,-59.308880,,,,,,,
1508183691.843720,-0.016086,-0.039657,3.122824,-0.356730,-0.193090,0.366793,-0.016073,0.039647,-0.999084,0.316992,-0.065144,-0.298645,-2.352145,23.976648,-59.137764,,,,,,,
1508183691.863712,-0.018161,-0.049262,3.129520,-0.562585,-0.079018,0.346099,-0.018138,0.049242,-0.998622,0.340983,-0.114748,-0.317601,-2.373003,24.207396,-59.042850,,,,,,,
1508183691.883709,-0.019586,-0.064558,3.136793,-0.868402,-0.087583,0.406166,-0.019544,0.064513,-0.997725,0.416593,-0.089690,-0.393815,-2.282356,25.309786,-58.582359,,,,,,,
1508183691.903710,-0.019253,-0.085974,-3.136292,-1.159068,0.016453,0.621334,-0.019181,0.085868,-0.996122,0.420868,-0.083793,-0.403140,-2.164344,26.156908,-58.213562,,,,,,,
1508183691.923743,-0.017555,-0.111197,-3.120694,-1.219079,-0.013909,0.896925,-0.017446,0.110968,-0.993671,0.396596,0.012216,-0.445141,-1.794279,27.557817,-57.576336,,,,,,,
1508183691.943738,-0.014755,-0.127515,-3.099492,-0.448991,0.026927,1.154867,-0.014634,0.127169,-0.991773,0.289689,0.251401,-0.339236,-1.103996,29.093264,-56.833534,,,,,,,
1508183691.963752,-0.010982,-0.118426,-3.073645,1.095834,0.000574,1.355621,-0.010904,0.118149,-0.992936,0.228312,0.343597,-0.325469,-0.547834,29.203176,-56.785221,,,,,,,
1508183691.983739,-0.008619,-0.079252,-3.043113,2.365775,-0.041734,1.579205,-0.008592,0.079169,-0.996824,0.135316,0.420450,-0.356951,0.238786,27.740067,-57.516247,,,,,,,
1508183692.003735,-0.006168,-0.029448,-3.009511,2.474862,0.096503,1.686947,-0.006166,0.029443,-0.999547,-0.116378,0.199179,-0.030772,1.270513,24.192379,-59.083012,,,,,,,
1508183692.023770,-0.003117,0.016011,-2.975462,2.155829,0.140273,1.679088,-0.003117,-0.016011,-0.999867,-0.207195,0.193760,0.008046,1.969311,22.008642,-59.911842,,,,,,,
1508183692.043768,-0.001335,0.055803,-2.943627,1.918723,0.166235,1.510414,-0.001333,-0.055774,-0.998443,-0.303415,0.165622,0.099181,2.824219,19.366772,-60.783543,,,,,,,
1508183692.063755,-0.000130,0.092739,-2.916144,1.810018,0.129434,1.282840,-0.000129,-0.092606,-0.995703,-0.332726,0.174485,0.223211,3.729319,16.352392,-61.614761,,,,,,,
1508183692.083786,-0.001107,0.128227,-2.892591,1.726241,0.043520,1.108209,-0.001098,-0.127876,-0.991790,-0.338104,0.155937,0.291182,3.872318,15.769510,-61.757710,,,,,,,
1508183692.103766,-0.004152,0.159670,-2.872565,1.489282,-0.002914,0.919259,-0.004099,-0.158993,-0.987271,-0.326025,0.171047,0.308621,4.385999,12.930349,-62.379936,,,,,,,
1508183692.123791,-0.006700,0.186319,-2.855575,1.240470,0.033644,0.780296,-0.006584,-0.185243,-0.982671,-0.296211,0.158540,0.355290,4.699141,10.069069,-62.882580,,,,,,,
1508183692.143803,-0.007981,0.208192,-2.840522,1.022786,0.109477,0.706851,-0.007809,-0.206691,-0.978375,-0.283497,0.152248,0.365124,4.857843,8.898449,-63.046860,,,,,,,
1508183692.163794,-0.008377,0.226783,-2.827059,0.890751,0.128906,0.595773,-0.008163,-0.224844,-0.974361,-0.300050,0.128942,0.390056,5.114569,7.558792,-63.201214,,,,,,,
1508183692.183789,-0.008254,0.243309,-2.817316,0.797015,0.113374,0.383875,-0.008011,-0.240915,-0.970513,-0.311096,0.118067,0.398904,5.404755,6.117359,-63.332882,,,,,,,
1508183692.203819,-0.007877,0.257184,-2.812054,0.611344,0.071227,0.175630,-0.007618,-0.254358,-0.967080,-0.285870,0.100077,0.400628,5.558584,5.143574,-63.406097,,,,,,,
1508183692.223821,-0.007105,0.265845,-2.810452,0.330526,0.063075,0.025611,-0.006856,-0.262724,-0.964847,-0.276027,0.101454,0.394290,5.608693,4.769622,-63.430908,,,,,,,
1508183692.243830,-0.004624,0.270366,-2.810841,0.173799,0.160181,-0.039658,-0.004456,-0.267084,-0.963663,-0.294739,0.122812,0.384775,5.766973,4.155870,-63.459892,,,,,,,
1508183692.263835,0.000341,0.273128,-2.812701,0.127224,0.233907,-0.146256,0.000328,-0.269745,-0.962932,-0.286919,0.135711,0.368221,5.948166,4.013033,-63.452362,,,,,,,
1508183692.283820,0.005992,0.275047,-2.818469,0.062471,0.185311,-0.347037,0.005767,-0.271592,-0.962395,-0.225157,0.162233,0.333550,6.221920,3.877836,-63.434513,,,,,,,
1508183692.303846,0.010873,0.273957,-2.827353,-0.134506,0.073768,-0.475361,0.010467,-0.270543,-0.962651,-0.220855,0.145650,0.270131,6.440250,3.910442,-63.410717,,,,,,,
1508183692.323824,0.014434,0.268328,-2.838536,-0.352949,0.025003,-0.566191,0.013917,-0.265119,-0.964115,-0.215638,0.151045,0.249073,6.454955,4.142502,-63.394485,,,,,,,
1508183692.343858,0.018742,0.259174,-2.850290,-0.494403,0.073014,-0.585975,0.018115,-0.256282,-0.966432,-0.196719,0.139018,0.229158,6.452139,4.685383,-63.356960,,,,,,,
1508183692.363863,0.023618,0.249448,-2.862388,-0.426023,0.101769,-0.591775,0.022885,-0.246869,-0.968779,-0.176174,0.164075,0.181791,6.506007,5.551789,-63.281406,,,,,,,
1508183692.383869,0.027272,0.243276,-2.874025,-0.219063,-0.013388,-0.561470,0.026466,-0.240884,-0.970193,-0.175438,0.168664,0.156869,6.534908,5.962801,-63.241028,,,,,,,
1508183692.403875,0.028021,0.240004,-2.885717,-0.125669,-0.147571,-0.591583,0.027214,-0.237707,-0.970956,-0.166863,0.139974,0.108422,6.425251,6.293692,-63.220192,,,,,,,
1508183692.423880,0.027558,0.236113,-2.898944,-0.211465,-0.177204,-0.677459,0.026790,-0.233925,-0.971885,-0.150844,0.072716,0.105705,6.071053,6.628374,-63.220993,,,,,,,
1508183692.443885,0.027103,0.230514,-2.912995,-0.289553,-0.211226,-0.700366,0.026383,-0.228478,-0.973191,-0.144044,0.069344,0.090882,5.837652,6.909332,-63.212894,,,,,,,
1508183692.463889,0.024706,0.222745,-2.928560,-0.425419,-0.350503,-0.817670,0.024094,-0.220907,-0.974997,-0.090118,0.011831,0.081229,5.445582,7.376972,-63.195042,,,,,,,
1508183692.483868,0.018389,0.211275,-2.946878,-0.672333,-0.600483,-0.962075,0.017979,-0.209706,-0.977599,-0.104023,-0.084956,0.118392,4.622731,8.240050,-63.153934,,,,,,,
1508183692.503903,0.006699,0.188550,-2.969395,-1.517635,-0.922479,-1.241474,0.006580,-0.187435,-0.982255,-0.097034,-0.136158,0.072099,3.834162,9.058435,-63.094620,,,,,,,
1508183692.523901,-0.005743,0.142584,-2.999071,-2.754912,-0.837334,-1.582997,-0.005685,-0.142101,-0.989836,-0.004569,-0.160038,-0.038454,2.447744,11.252863,-62.809780,,,,,,,
1508183692.543896,-0.019858,0.075169,-3.035928,-3.785047,-0.993991,-1.953158,-0.019801,-0.075098,-0.996980,0.057490,-0.095510,-0.064590,0.533503,15.999550,-61.817612,,,,,,,
1508183692.563913,-0.044817,-0.018603,-3.086795,-5.455040,-1.533298,-2.660638,-0.044794,0.018602,-0.998823,0.146631,-0.171739,-0.115389,-1.049443,19.790680,-60.703499,,,,,,,
1508183692.583897,-0.081157,-0.142264,3.131883,-6.514755,-1.449878,-2.694108,-0.080249,0.141784,-0.986639,0.250522,0.058304,-0.122141,-4.127993,26.420025,-57.988178,,,,,,,
1508183692.603929,-0.103473,-0.242333,3.091027,-3.934856,-0.348784,-0.705233,-0.100270,0.239968,-0.965588,0.159367,0.631507,-0.417911,-7.359696,34.424675,-53.277233,,,,,,,
1508183692.623936,-0.099127,-0.268161,3.089320,0.267511,0.545314,0.183938,-0.095427,0.264958,-0.959526,0.358642,0.781352,-0.673897,-7.466037,36.857788,-51.608612,,,,,,,
1508183692.643942,-0.087927,-0.230076,3.088738,2.503281,0.432044,-0.451613,-0.085500,0.228052,-0.969888,0.484151,0.726965,-0.667029,-6.972627,36.049576,-52.244595,,,,,,,
1508183692.663947,-0.087626,-0.179155,3.081916,2.229608,-0.067395,-0.495347,-0.086113,0.178198,-0.980219,0.363716,0.034067,-0.307699,-7.026148,32.625160,-54.441887,,,,,,,
1508183692.683927,-0.086787,-0.152426,3.079955,0.779064,0.253803,-0.061733,-0.085673,0.151837,-0.984686,0.243342,-0.157086,-0.196696,-7.255766,31.042393,-55.330017,,,,,,,
1508183692.703958,-0.072497,-0.146869,3.081368,0.151575,0.909876,0.072107,-0.071653,0.146342,-0.986636,0.092985,-0.158488,-0.069532,-6.880633,30.287411,-55.794418,,,,,,,
1508183692.723963,-0.054851,-0.139755,3.083117,0.551158,0.746815,0.062443,-0.054289,0.139301,-0.988761,0.221251,-0.005390,-0.097207,-5.584999,29.954693,-56.117836,,,,,,,
1508183692.743969,-0.047791,-0.123151,3.085096,0.945759,0.095879,0.052394,-0.047411,0.122840,-0.991293,0.239291,-0.008170,-0.103143,-5.061739,29.384117,-56.468044,,,,,,,
1508183692.763975,-0.049238,-0.106417,3.087665,0.708015,-0.126832,0.120846,-0.048940,0.106217,-0.993138,0.157399,-0.087143,-0.041042,-4.958968,28.343485,-57.006512,,,,,,,
1508183692.783980,-0.049823,-0.098327,3.091639,0.239160,0.009492,0.192796,-0.049562,0.098168,-0.993935,-0.014693,-0.099267,0.025307,-4.986936,27.521240,-57.405567,,,,,,,
1508183692.803987,-0.047984,-0.098555,3.094641,-0.124150,0.109877,0.111640,-0.047732,0.098396,-0.994002,-0.011670,-0.090538,0.031737,-4.879450,27.418640,-57.463867,,,,,,,
1508183692.823981,-0.045630,-0.102481,3.095904,-0.191661,0.095067,0.068187,-0.045375,0.102301,-0.993718,0.018626,-0.059287,0.035481,-4.696738,27.587078,-57.398438,,,,,,,
1508183692.843996,-0.043999,-0.103967,3.097779,0.014043,0.055518,0.110192,-0.043748,0.103780,-0.993638,-0.015823,0.032374,0.002701,-4.514490,27.795776,-57.312313,,,,,,,
1508183692.864002,-0.042932,-0.102726,3.099463,0.067389,0.048159,0.054811,-0.042693,0.102545,-0.993812,-0.023607,0.030175,-0.010507,-4.430120,27.763882,-57.334351,,,,,,,
1508183692.883983,-0.041363,-0.102402,3.100220,-0.016251,0.083376,0.033037,-0.041134,0.102223,-0.993911,-0.010059,0.012736,-0.010057,-4.337554,27.704647,-57.370071,,,,,,,
1508183692.904004,-0.039893,-0.103554,3.101095,-0.061030,0.056704,0.059049,-0.039668,0.103369,-0.993852,0.000865,0.016138,-0.007461,-4.200881,27.758087,-57.354408,,,,,,,
1508183692.924020,-0.038733,-0.103777,3.102426,0.044929,0.054537,0.064332,-0.038514,0.103591,-0.993874,-0.004744,0.048722,0.002556,-4.105379,27.803715,-57.339222,,,,,,,
1508183692.944006,-0.037198,-0.100747,3.104007,0.208657,0.074694,0.085243,-0.037001,0.100577,-0.994241,-0.014818,0.053125,0.001672,-4.054090,27.767059,-57.360630,,,,,,,
1508183692.964029,-0.035873,-0.096825,3.106242,0.167121,0.032051,0.107218,-0.035698,0.096674,-0.994676,0.000160,0.003729,0.005021,-3.864858,27.444908,-57.528488,,,,,,,
1508183692.984037,-0.035824,-0.095167,3.107945,0.036616,-0.023234,0.069731,-0.035654,0.095024,-0.994836,-0.000402,0.002755,0.000375,-3.805623,27.315468,-57.594009,,,,,,,
1508183693.004042,-0.036482,-0.095572,3.109215,-0.023310,-0.032787,0.060318,-0.036308,0.095427,-0.994774,-0.020440,-0.002546,-0.001899,-3.807271,27.314161,-57.594517,,,,,,,
1508183693.024047,-0.045334,-0.105559,3.109388,0.085624,0.017258,0.048852,-0.045066,0.105363,-0.993412,-0.013848,0.018508,0.001576,-4.139406,27.699902,-57.387001,,,,,,,
1508183693.044053,-0.044962,-0.103414,3.110572,0.104977,-0.001943,0.059779,-0.044706,0.103230,-0.993652,-0.004412,0.005092,-0.007004,-4.269497,27.814442,-57.322033,,,,,,,
1508183693.064059,-0.042098,-0.100018,3.112504,-0.009273,-0.056283,0.084110,-0.041875,0.099851,-0.994121,0.018087,-0.010725,-0.040974,-4.054547,27.594566,-57.443779,,,,,,,
1508183693.084064,-0.042986,-0.102058,3.113749,-0.147459,-0.040208,0.053058,-0.042749,0.101881,-0.993878,-0.005942,-0.013456,-0.073704,-4.076926,27.669428,-57.406170,,,,,,,
1508183693.104043,-0.043908,-0.106913,3.114502,-0.300434,-0.061462,0.047083,-0.043644,0.106710,-0.993332,-0.007855,-0.032460,-0.102402,-4.091827,27.829849,-57.327511,,,,,,,
1508183693.124076,-0.045523,-0.115050,3.114969,-0.485481,-0.099740,0.034981,-0.045206,0.114797,-0.992360,-0.001775,-0.055287,-0.168727,-4.140963,28.197903,-57.143837,,,,,,,
1508183693.144081,-0.049258,-0.128407,3.114943,-0.800717,-0.244535,0.036251,-0.048833,0.128054,-0.990564,0.013280,-0.109469,-0.363272,-4.314109,28.992428,-56.731956,,,,,,,
1508183693.164087,-0.054935,-0.147245,3.115625,-0.973705,-0.280867,0.114748,-0.054313,0.146714,-0.987687,-0.003014,-0.108094,-0.423965,-4.524801,29.734341,-56.330120,,,,,,,
1508183693.184070,-0.059434,-0.163462,3.115989,-0.626564,-0.175300,0.016989,-0.058607,0.162735,-0.984928,-0.066118,0.011734,-0.535855,-4.769694,30.802174,-55.732964,,,,,,,
1508183693.204097,-0.061287,-0.168903,3.116042,-0.069303,-0.065772,0.042707,-0.060377,0.168101,-0.983919,-0.026659,0.128393,-0.790663,-4.948156,31.475487,-55.339828,,,,,,,
1508183693.224104,-0.062122,-0.163154,3.118294,0.560142,-0.061830,0.123216,-0.061257,0.162432,-0.984816,-0.026450,0.137816,-0.808015,-4.972304,31.430679,-55.363129,,,,,,,
1508183693.244109,-0.063539,-0.141098,3.122229,1.464460,-0.109977,0.115772,-0.062865,0.140630,-0.988064,-0.027162,0.214656,-0.818790,-4.978432,30.696270,-55.773121,,,,,,,
1508183693.264111,-0.064252,-0.100857,3.127377,2.321460,-0.037814,0.145005,-0.063882,0.100686,-0.992865,-0.018470,0.255454,-0.780389,-5.016598,28.323849,-57.011230,,,,,,,
1508183693.284121,-0.064560,-0.045907,3.133686,3.015820,-0.059216,0.102137,-0.064448,0.045890,-0.996865,-0.001272,0.300759,-0.727515,-4.975722,25.350758,-58.397507,,,,,,,
1508183693.304102,-0.066287,0.020853,3.138852,3.498317,-0.107123,0.027829,-0.066224,-0.020851,-0.997587,0.037370,0.276085,-0.550768,-5.015322,22.557316,-59.528996,,,,,,,
1508183693.324109,-0.069575,0.092874,-3.138324,3.670878,-0.147744,0.077339,-0.069219,-0.092741,-0.993281,0.050588,0.275709,-0.391118,-5.189638,17.214151,-61.273384,,,,,,,
1508183693.344138,-0.071950,0.168800,-3.130547,3.897541,-0.029659,0.126639,-0.070866,-0.168000,-0.983237,0.043400,0.325302,-0.286936,-5.272709,13.769819,-62.131134,,,,,,,
1508183693.364142,-0.074313,0.249022,-3.122035,4.098694,-0.033951,0.116953,-0.071955,-0.246456,-0.966479,0.069758,0.281246,-0.020429,-5.284315,8.866428,-63.017059,,,,,,,
1508183693.384148,-0.077899,0.331330,-3.112958,4.129885,-0.074462,0.129247,-0.073588,-0.325301,-0.942743,0.091013,0.306120,0.127374,-5.328178,2.364538,-63.590149,,,,,,,
1508183693.404154,-0.084214,0.411557,-3.103155,3.968552,-0.158573,0.128455,-0.077091,-0.400036,-0.913251,0.089954,0.321698,0.262647,-5.477115,-2.806192,-63.559528,,,,,,,
1508183693.424160,-0.090657,0.487759,-3.092911,3.729605,-0.042415,0.134414,-0.079976,-0.468648,-0.879757,0.088429,0.372289,0.313321,-5.578873,-5.305983,-63.390930,,,,,,,
1508183693.444165,-0.096055,0.556101,-3.080584,3.259940,0.069293,0.264301,-0.081456,-0.527879,-0.845405,0.057942,0.307252,0.498328,-5.676845,-12.193357,-62.424213,,,,,,,
1508183693.464169,-0.101706,0.613681,-3.066806,2.711984,0.116267,0.281092,-0.083005,-0.575881,-0.813309,0.061902,0.344206,0.592057,-5.649942,-15.955086,-61.572723,,,,,,,
1508183693.484178,-0.107367,0.660117,-3.054125,2.156753,0.051464,0.262188,-0.084649,-0.613209,-0.785372,0.072213,0.361042,0.599581,-5.623499,-17.559879,-61.136848,,,,,,,
1508183693.504181,-0.116365,0.696810,-3.043082,1.718512,-0.191155,0.190328,-0.089038,-0.641774,-0.761707,0.086063,0.363866,0.653248,-5.757629,-21.345968,-59.907314,,,,,,,
1508183693.524188,-0.127570,0.726945,-3.034188,1.445756,-0.283661,0.139626,-0.095063,-0.664590,-0.741136,0.072403,0.375726,0.657930,-6.023157,-22.797201,-59.343884,,,,,,,
1508183693.544165,-0.137794,0.752545,-3.024933,1.234696,-0.139904,0.191014,-0.100265,-0.683498,-0.723033,-0.037476,0.362255,0.720546,-6.317741,-24.066290,-58.809750,,,,,,,
1508183693.564190,-0.145346,0.772776,-3.015573,0.912191,-0.009845,0.180840,-0.103698,-0.698125,-0.708426,-0.031129,0.312047,0.724601,-6.676181,-26.114836,-57.888954,,,,,,,
1508183693.584204,-0.149244,0.784291,-3.008723,0.402516,0.053218,0.137655,-0.105256,-0.706324,-0.700020,-0.023589,0.306803,0.702049,-6.726090,-26.787907,-57.574780,,,,,,,
1508183693.604193,-0.150111,0.785997,-3.006496,-0.061138,0.022694,0.011556,-0.105683,-0.707530,-0.698736,-0.035827,0.322963,0.658651,-6.734555,-27.121765,-57.417271,,,,,,,
1508183693.624214,-0.146799,0.781762,-3.008715,-0.299349,0.159260,-0.067019,-0.103805,-0.704531,-0.702040,-0.057800,0.330858,0.631407,-6.658090,-26.986656,-57.489807,,,,,,,
1508183693.644222,-0.137562,0.774329,-3.012923,-0.436106,0.390559,-0.121454,-0.098032,-0.699237,-0.708137,-0.045020,0.336413,0.593284,-6.432581,-26.702030,-57.648163,,,,,,,
1508183693.664215,-0.124384,0.764440,-3.019058,-0.577673,0.458841,-0.157526,-0.089545,-0.692133,-0.716194,0.004356,0.289210,0.514564,-6.049669,-26.335485,-57.857849,,,,,,,
1508183693.684216,-0.111894,0.750717,-3.025547,-0.794595,0.357697,-0.156962,-0.081646,-0.682163,-0.726627,-0.006580,0.198673,0.402240,-5.171073,-25.300537,-58.402313,,,,,,,
1508183693.704239,-0.100574,0.732780,-3.032440,-0.976445,0.348136,-0.147091,-0.074632,-0.668939,-0.739561,-0.023573,0.182473,0.393995,-4.813949,-24.565588,-58.745594,,,,,,,
1508183693.724219,-0.087582,0.712955,-3.039014,-1.019757,0.481373,-0.183112,-0.066165,-0.654072,-0.753533,-0.040555,0.230778,0.356682,-4.449559,-23.715754,-59.122345,,,,,,,
1508183693.744244,-0.070988,0.691455,-3.049198,-1.187297,0.478600,-0.373814,-0.054637,-0.637659,-0.768379,0.032497,0.192575,0.256340,-3.445838,-21.877859,-59.893013,,,,,,,
1508183693.764256,-0.054032,0.664004,-3.062756,-1.553222,0.381910,-0.451044,-0.042531,-0.616275,-0.786381,0.044850,0.140598,0.242009,-2.730011,-20.325390,-60.474068,,,,,,,
1508183693.784247,-0.041309,0.628627,-3.074479,-1.897003,0.223086,-0.355714,-0.033402,-0.588034,-0.808146,0.008973,0.136725,0.185603,-2.423198,-19.362328,-60.802269,,,,,,,
1508183693.804242,-0.030296,0.590620,-3.085483,-1.887751,0.289241,-0.412128,-0.025160,-0.556876,-0.830214,-0.060091,0.286902,0.199004,-1.784723,-15.930172,-61.812065,,,,,,,
1508183693.824270,-0.015187,0.555794,-3.097995,-1.647954,0.494992,-0.522988,-0.012901,-0.527618,-0.849384,-0.038384,0.287383,0.204578,-1.368824,-14.226170,-62.236885,,,,,,,
1508183693.844275,0.002822,0.524796,-3.111704,-1.543513,0.544139,-0.609084,0.002442,-0.501036,-0.865423,0.090209,0.230239,0.149679,-0.803779,-12.687359,-62.578529,,,,,,,
1508183693.864270,0.018868,0.491853,-3.124087,-1.701252,0.469360,-0.483124,0.016631,-0.472260,-0.881303,0.130113,0.166016,0.082291,0.395759,-9.708040,-63.113266,,,,,,,
1508183693.884286,0.027043,0.456781,-3.129258,-1.740858,0.127806,-0.137990,0.024267,-0.441062,-0.897149,0.066721,0.118872,0.029000,0.845141,-8.062767,-63.340073,,,,,,,
1508183693.904273,0.024359,0.423830,-3.128964,-1.600277,-0.226149,-0.006073,0.022201,-0.411255,-0.911250,-0.014968,0.060303,-0.006230,0.981474,-6.409685,-63.526688,,,,,,,
1508183693.924298,0.020093,0.390507,-3.129554,-1.732405,-0.191777,-0.132296,0.018579,-0.380657,-0.924530,-0.023661,-0.031895,-0.056977,0.605318,-3.289568,-63.769112,,,,,,,
1508183693.944307,0.019097,0.350109,-3.132719,-2.269004,-0.085006,-0.188889,0.017937,-0.343000,-0.939164,-0.005928,-0.116625,-0.096969,0.459038,-1.543484,-63.836468,,,,,,,
1508183693.964306,0.017016,0.294254,-3.134527,-3.094457,-0.204279,-0.102302,0.016284,-0.290026,-0.956880,0.004910,-0.222913,-0.224226,0.342953,1.494951,-63.838348,,,,,,,
1508183693.984295,0.009075,0.223625,-3.138591,-3.756730,-0.548680,-0.386845,0.008849,-0.221766,-0.975060,-0.010054,-0.078649,-0.392296,-0.177842,6.703082,-63.503738,,,,,,,
1508183694.004323,-0.000804,0.141529,3.133183,-4.323454,-0.614055,-0.650981,-0.000796,-0.141057,-0.990001,0.021822,-0.038951,-0.515141,-1.006756,11.700902,-62.767529,,,,,,,
1508183694.024329,-0.006945,0.052059,3.121708,-4.417303,-0.123388,-0.436235,-0.006935,-0.052035,-0.998621,0.012963,0.042804,-0.448767,-1.461615,14.435717,-62.186501,,,,,,,
1508183694.044315,-0.007307,-0.025009,3.112677,-3.395793,-0.018132,-0.463053,-0.007305,0.025007,-0.999661,0.140361,0.367373,-0.788746,-2.011178,22.193933,-59.842056,,,,,,,
1508183694.064340,-0.005797,-0.069522,3.103509,-1.471065,0.155958,-0.399845,-0.005783,0.069466,-0.997568,0.088516,0.386848,-0.764823,-2.166382,25.384026,-58.554638,,,,,,,
1508183694.084319,-0.004455,-0.079694,3.097395,-0.117710,0.064748,-0.236393,-0.004440,0.079609,-0.996816,0.090561,0.232006,-0.695750,-2.180856,26.098160,-58.239307,,,,,,,
1508183694.104352,-0.002133,-0.078819,3.093643,0.039422,0.187091,-0.176440,-0.002126,0.078738,-0.996893,0.088079,-0.009463,-0.459879,-2.202665,26.345818,-58.126877,,,,,,,
1508183694.124358,0.003099,-0.080393,3.091124,-0.144759,0.329699,-0.086668,0.003089,0.080306,-0.996765,0.067666,0.000932,-0.372589,-2.006451,26.377415,-58.119648,,,,,,,
1508183694.144354,0.010111,-0.083750,3.090090,-0.142464,0.324287,-0.043939,0.010075,0.083652,-0.996444,0.045574,-0.015491,-0.291443,-1.825819,26.468174,-58.084328,,,,,,,
1508183694.164359,0.014259,-0.083942,3.089003,0.084849,0.147439,-0.062871,0.014208,0.083844,-0.996378,0.040113,-0.037213,-0.198950,-1.355230,26.645264,-58.016209,,,,,,,
1508183694.184374,0.014917,-0.080096,3.087907,0.225601,-0.023077,-0.041311,0.014869,0.080011,-0.996683,0.008599,-0.069177,-0.107946,-1.292681,26.460419,-58.102173,,,,,,,
1508183694.204382,0.013161,-0.076848,3.087087,0.115626,-0.109325,-0.045309,0.013121,0.076772,-0.996962,-0.013945,-0.076162,-0.068040,-1.324925,26.333355,-58.159145,,,,,,,
1508183694.224377,0.011445,-0.076152,3.085488,-0.008879,-0.043137,-0.101623,0.011411,0.076079,-0.997037,-0.025266,-0.068266,-0.031757,-1.532033,26.158096,-58.233101,,,,,,,
1508183694.244363,0.011197,-0.076930,3.083650,-0.034664,0.012225,-0.083213,0.011164,0.076854,-0.996980,-0.005762,-0.042415,-0.025985,-1.593849,26.179451,-58.221848,,,,,,,
1508183694.264380,0.011064,-0.076353,3.082640,0.077984,-0.025198,-0.027307,0.011032,0.076279,-0.997025,0.029038,0.004074,-0.027724,-1.617650,26.204954,-58.209713,,,,,,,
1508183694.284395,0.009903,-0.073440,3.082273,0.167989,-0.074229,-0.026670,0.009876,0.073374,-0.997256,0.025784,0.016668,-0.021711,-1.691439,26.043884,-58.279861,,,,,,,
1508183694.304410,0.014073,-0.070944,3.081713,0.140035,-0.050736,-0.046186,0.014037,0.070884,-0.997386,0.026338,0.004463,-0.009389,-1.799777,25.849586,-58.363060,,,,,,,
1508183694.324408,0.013352,-0.068938,3.081054,0.084399,-0.023081,-0.018821,0.013320,0.068883,-0.997536,0.038651,0.012370,-0.002434,-1.503171,25.811939,-58.388115,,,,,,,
1508183694.344403,0.012731,-0.067532,3.081313,0.056822,-0.052997,0.029617,0.012701,0.067481,-0.997640,0.067011,-0.005652,0.004216,-1.558827,25.664082,-58.451794,,,,,,,
1508183694.364426,0.020634,-0.062282,3.082718,0.004793,-0.166977,0.046233,0.020592,0.062242,-0.997849,0.059013,-0.025392,-0.011413,-1.615797,25.624603,-58.467567,,,,,,,
1508183694.384406,0.016409,-0.063441,3.083835,-0.104166,-0.223419,0.052464,0.016375,0.063399,-0.997854,0.041471,-0.038832,-0.013438,-1.125831,25.348921,-58.599075,,,,,,,
1508183694.404431,0.012291,-0.066904,3.085153,-0.218625,-0.210655,0.075824,0.012263,0.066854,-0.997687,0.063787,-0.044683,-0.054925,-1.460988,25.555201,-58.502003,,,,,,,
1508183694.424444,0.016006,-0.066115,3.087376,-0.367086,-0.307520,0.067740,0.015970,0.066067,-0.997687,0.072623,-0.051937,-0.080132,-1.626499,25.777233,-58.400135,,,,,,,
1508183694.444440,0.007004,-0.077693,3.087831,-0.752997,-0.546900,-0.032996,0.006982,0.077615,-0.996959,0.098242,-0.100289,-0.139699,-1.344353,25.703695,-58.439713,,,,,,,
1508183694.464437,-0.005688,-0.099686,3.085189,-1.298902,-0.639163,-0.170934,-0.005660,0.099521,-0.995019,0.117537,-0.072956,-0.206290,-2.350462,27.149265,-57.750149,,,,,,,
1508183694.484460,-0.017678,-0.130148,3.081934,-1.593370,-0.490104,-0.097168,-0.017527,0.129781,-0.991388,0.128382,-0.042714,-0.181616,-3.149998,28.804369,-56.904072,,,,,,,
1508183694.504443,-0.023891,-0.159430,3.081814,-1.322820,-0.219986,0.094911,-0.023586,0.158756,-0.987036,0.183406,0.049801,-0.303400,-3.520500,30.127872,-56.192570,,,,,,,
1508183694.524461,-0.026058,-0.178566,3.084889,-0.711661,-0.137297,0.218011,-0.025640,0.177619,-0.983765,0.373571,0.160379,-0.483016,-3.672289,31.772068,-55.269676,,,,,,,
1508183694.544477,-0.029157,-0.183581,3.091734,0.052401,-0.278525,0.431680,-0.028663,0.182552,-0.982778,0.407737,0.215992,-0.526972,-3.686436,32.270195,-54.979378,,,,,,,
1508183694.564459,-0.034327,-0.173857,3.103436,0.743536,-0.369660,0.640412,-0.033803,0.172983,-0.984345,0.394750,0.219214,-0.509659,-3.706722,32.205795,-55.015762,,,,,,,
1508183694.584485,-0.036825,-0.153718,3.120938,1.239418,-0.168031,0.961271,-0.036383,0.153114,-0.987539,0.267538,0.256188,-0.453471,-3.617249,30.985161,-55.718243,,,,,,,
1508183694.604494,-0.032319,-0.120414,-3.136151,2.004925,0.135626,1.365753,-0.032079,0.120123,-0.992241,0.223989,0.305627,-0.416207,-2.966049,29.354996,-56.631920,,,,,,,
1508183694.624484,-0.026483,-0.073302,-3.106821,2.573123,0.138677,1.367415,-0.026408,0.073236,-0.996965,0.217998,0.294531,-0.352919,-2.485632,28.198866,-57.239258,,,,,,,
1508183694.644498,-0.023232,-0.020905,-3.077625,2.655978,0.069258,1.446200,-0.023225,0.020904,-0.999512,0.061417,0.127961,-0.156952,-1.187847,23.797441,-59.244900,,,,,,,
1508183694.664499,-0.022524,0.029772,-3.044973,2.498298,0.039102,1.631225,-0.022512,-0.029768,-0.999303,-0.004160,0.143568,-0.096812,-0.627929,21.462797,-60.138515,,,,,,,
1508183694.684509,-0.022615,0.077546,-3.010969,2.401759,0.117953,1.631221,-0.022545,-0.077468,-0.996740,-0.076134,0.173523,0.011571,0.085694,18.457277,-61.131077,,,,,,,
1508183694.704514,-0.023250,0.125337,-2.977983,2.447499,0.132996,1.560592,-0.023066,-0.125009,-0.991888,-0.104788,0.182000,0.150075,0.947666,14.715370,-62.130890,,,,,,,
1508183694.724529,-0.026761,0.173074,-2.946152,2.404759,0.024512,1.481159,-0.026358,-0.172211,-0.984707,-0.113749,0.217926,0.194928,1.359774,12.402141,-62.626076,,,,,,,
1508183694.744513,-0.031892,0.219993,-2.915340,2.356318,0.059790,1.424169,-0.031118,-0.218223,-0.975403,-0.171931,0.230674,0.276153,1.720618,9.327872,-63.148380,,,,,,,
1508183694.764513,-0.037748,0.263712,-2.884578,2.148594,0.083316,1.404791,-0.036434,-0.260666,-0.964741,-0.260777,0.219696,0.387913,2.091182,5.602092,-63.576180,,,,,,,
1508183694.784546,-0.043803,0.302274,-2.854893,1.877393,0.132588,1.302981,-0.041804,-0.297692,-0.953746,-0.294988,0.215890,0.440196,2.334785,2.927822,-63.746876,,,,,,,
1508183694.804541,-0.049329,0.335393,-2.828421,1.618812,0.141588,1.096182,-0.046562,-0.329140,-0.943132,-0.307732,0.224404,0.467424,2.451242,1.722048,-63.786465,,,,,,,
1508183694.824533,-0.054089,0.363584,-2.806502,1.366647,0.135702,0.874666,-0.050529,-0.355626,-0.933262,-0.341622,0.180897,0.522983,2.721168,-1.397301,-63.783463,,,,,,,
1508183694.844564,-0.058365,0.385946,-2.788749,1.023758,0.096735,0.694217,-0.054041,-0.376435,-0.924865,-0.350927,0.187150,0.527404,2.817315,-2.666628,-63.738831,,,,,,,
1508183694.864552,-0.062398,0.400459,-2.775443,0.589942,0.017368,0.485632,-0.057424,-0.389841,-0.919090,-0.380884,0.170267,0.507362,2.875402,-3.674370,-63.686089,,,,,,,
1508183694.884564,-0.065071,0.406419,-2.767952,0.170663,0.029714,0.223457,-0.059728,-0.395323,-0.916598,-0.392543,0.174391,0.510303,2.866214,-4.740259,-63.616051,,,,,,,
1508183694.904581,-0.063909,0.406254,-2.766499,-0.082937,0.130382,-0.013465,-0.058667,-0.395171,-0.916732,-0.381961,0.180068,0.507644,2.932518,-4.823267,-63.606789,,,,,,,
1508183694.924561,-0.058433,0.404151,-2.768790,-0.106258,0.275520,-0.143509,-0.053695,-0.393238,-0.917867,-0.352448,0.203709,0.476415,3.100941,-4.722870,-63.606335,,,,,,,
1508183694.944592,-0.050070,0.401849,-2.774228,-0.172208,0.314230,-0.316761,-0.046062,-0.391121,-0.919186,-0.281666,0.178108,0.404904,3.585860,-4.528961,-63.594948,,,,,,,
1508183694.964598,-0.041208,0.395660,-2.784312,-0.434699,0.197534,-0.523867,-0.038013,-0.385418,-0.921959,-0.212032,0.168850,0.340950,3.972180,-4.162239,-63.597050,,,,,,,
1508183694.984604,-0.033125,0.384493,-2.798156,-0.654301,0.122243,-0.666561,-0.030701,-0.375089,-0.926480,-0.191467,0.168165,0.320660,4.109924,-3.842115,-63.608444,,,,,,,
1508183695.004590,-0.025029,0.370704,-2.813895,-0.721872,0.102154,-0.733396,-0.023326,-0.362272,-0.931780,-0.182942,0.210188,0.239016,4.413455,-2.501513,-63.654934,,,,,,,
1508183695.024612,-0.016913,0.358067,-2.830015,-0.595662,0.124487,-0.730616,-0.015839,-0.350464,-0.936442,-0.183914,0.199341,0.231318,4.541561,-1.788404,-63.669956,,,,,,,
1508183695.044592,-0.009987,0.347436,-2.845616,-0.536527,0.020095,-0.738743,-0.009390,-0.340488,-0.940202,-0.176706,0.161961,0.186860,4.711990,-0.979612,-63.675148,,,,,,,
1508183695.064618,-0.005925,0.335078,-2.863032,-0.693731,-0.155368,-0.869368,-0.005595,-0.328843,-0.944368,-0.124699,0.113313,0.129549,4.684886,0.024261,-63.684681,,,,,,,
1508183695.084633,-0.003986,0.318735,-2.882512,-0.886314,-0.225515,-0.924720,-0.003785,-0.313366,-0.949625,-0.135009,0.096584,0.139078,4.499448,0.800217,-63.693031,,,,,,,
1508183695.104609,-0.001231,0.301932,-2.900896,-0.756941,-0.087254,-0.830855,-0.001175,-0.297365,-0.954763,-0.168930,0.135317,0.140951,4.213755,2.000366,-63.686188,,,,,,,
1508183695.124615,0.001526,0.291498,-2.917958,-0.391793,-0.190644,-0.845624,0.001461,-0.287388,-0.957813,-0.064724,0.101215,0.044926,4.012813,3.130033,-63.653652,,,,,,,
1508183695.144650,-0.001343,0.283784,-2.938114,-0.460892,-0.556681,-1.038596,-0.001290,-0.279990,-0.960002,-0.028389,0.041572,0.028468,3.692790,3.527401,-63.652245,,,,,,,
1508183695.164649,-0.007037,0.269124,-2.961034,-0.923252,-0.590533,-1.098538,-0.006783,-0.265887,-0.963980,-0.075370,-0.041166,0.025946,3.113706,4.027853,-63.653500,,,,,,,
1508183695.184643,-0.012235,0.245744,-2.982471,-1.313940,-0.454262,-1.010651,-0.011867,-0.243278,-0.969884,-0.035633,0.063239,-0.052180,1.850612,5.950266,-63.552002,,,,,,,
1508183695.204667,-0.016204,0.218122,-3.005539,-1.433184,-0.481591,-1.179707,-0.015819,-0.216397,-0.976177,0.031231,0.026501,-0.066990,1.316236,7.263942,-63.428623,,,,,,,
1508183695.224673,-0.022944,0.186092,-3.032104,-1.794569,-0.727304,-1.312359,-0.022546,-0.185020,-0.982476,0.082848,-0.080269,-0.114493,0.715135,8.651074,-63.264008,,,,,,,
1508183695.244671,-0.037408,0.142121,-3.061953,-2.564415,-1.100696,-1.468444,-0.037022,-0.141643,-0.989225,0.176945,-0.068043,-0.246874,-1.174028,12.242450,-62.661240,,,,,,,
1508183695.264685,-0.054073,0.083249,-3.094838,-3.246643,-0.913017,-1.482384,-0.053859,-0.083153,-0.995080,0.182063,-0.036629,-0.251654,-2.498608,14.782721,-62.071857,,,,,,,
1508183695.284674,-0.067250,0.016042,-3.126910,-3.454584,-0.572516,-1.272847,-0.067191,-0.016041,-0.997611,0.212195,0.041477,-0.363076,-3.710703,17.712620,-61.238724,,,,,,,
1508183695.304669,-0.069574,-0.042081,3.135102,-2.565327,0.119446,-0.630972,-0.069456,0.042068,-0.996698,0.279127,0.442642,-0.499030,-5.210601,23.504902,-59.144367,,,,,,,
1508183695.324702,-0.068932,-0.071587,3.121897,-0.852607,-0.016405,-0.562044,-0.068701,0.071525,-0.995070,0.399771,0.290657,-0.544588,-5.370826,25.727543,-58.197380,,,,,,,
1508183695.344699,-0.073196,-0.076114,3.109591,-0.110494,-0.232785,-0.586120,-0.072919,0.076041,-0.994435,0.341870,0.128503,-0.450069,-5.548784,26.092293,-58.018017,,,,,,,
1508183695.364712,-0.077996,-0.078724,3.100323,-0.232016,-0.133091,-0.351822,-0.077676,0.078643,-0.993872,0.133904,0.017869,-0.279092,-6.342226,26.284163,-57.849857,,,,,,,
1508183695.384711,-0.076258,-0.084443,3.095192,-0.313953,0.254347,-0.187838,-0.075912,0.084343,-0.993541,0.127533,0.020790,-0.225606,-6.474337,26.577564,-57.700981,,,,,,,
1508183695.404726,-0.069613,-0.088558,3.091387,-0.131168,0.346928,-0.163726,-0.069284,0.088442,-0.993669,0.126139,0.021573,-0.209426,-6.357038,26.740742,-57.638599,,,,,,,
1508183695.424718,-0.065223,-0.087565,3.089020,0.128569,0.157115,-0.095058,-0.064927,0.087453,-0.994051,0.076981,-0.017019,-0.127837,-5.949843,26.870094,-57.621914,,,,,,,
1508183695.444736,-0.063207,-0.083611,3.087687,0.210147,0.091014,-0.077099,-0.062944,0.083513,-0.994517,0.035600,-0.027117,-0.099523,-5.870881,26.723061,-57.698334,,,,,,,
1508183695.464736,-0.060951,-0.080225,3.086287,0.124330,0.153901,-0.085411,-0.060717,0.080139,-0.994933,-0.005140,-0.052520,-0.054185,-5.801083,26.484545,-57.815250,,,,,,,
1508183695.484747,-0.057095,-0.079316,3.084731,-0.006324,0.211417,-0.065887,-0.056884,0.079233,-0.995232,0.042495,-0.048868,-0.054146,-5.606449,26.342239,-57.899406,,,,,,,
1508183695.504733,-0.053365,-0.080103,3.084356,-0.032695,0.168658,0.012592,-0.053169,0.080017,-0.995374,0.038352,-0.030075,-0.053820,-5.447525,26.363344,-57.904972,,,,,,,
1508183695.524754,-0.050746,-0.078902,3.085121,0.130244,0.098261,0.038016,-0.050567,0.078820,-0.995606,0.017516,0.020393,-0.051269,-5.251688,26.378826,-57.916012,,,,,,,
1508183695.544751,-0.049676,-0.074936,3.085663,0.218099,0.027993,0.008046,-0.049516,0.074866,-0.995964,0.007524,-0.013464,-0.037545,-5.118869,26.152567,-58.030403,,,,,,,
1508183695.564772,-0.049183,-0.071200,3.085904,0.154948,0.025894,0.000660,-0.049038,0.071140,-0.996260,-0.004825,-0.017124,-0.029497,-5.095535,25.969797,-58.114475,,,,,,,
1508183695.584754,-0.049016,-0.065267,3.086482,0.019173,0.041806,0.049582,-0.048892,0.065221,-0.996672,-0.002271,-0.029469,-0.042695,-5.072167,25.836987,-58.175682,,,,,,,
1508183695.604779,-0.048451,-0.066401,3.087776,-0.089795,0.005572,0.071516,-0.048326,0.066352,-0.996625,0.013139,0.001870,-0.081607,-5.014330,25.568104,-58.299362,,,,,,,
1508183695.624789,-0.050207,-0.069340,3.088876,-0.104572,-0.084933,0.052580,-0.050065,0.069285,-0.996340,-0.010314,0.011984,-0.102812,-5.014494,25.694420,-58.243786,,,,,,,
1508183695.644782,-0.052294,-0.071332,3.089032,-0.102563,-0.111435,-0.012082,-0.052137,0.071271,-0.996093,-0.029848,0.008624,-0.123261,-5.101412,25.800657,-58.189251,,,,,,,
1508183695.664776,-0.055127,-0.074788,3.087749,-0.255709,-0.150661,-0.087105,-0.054945,0.074718,-0.995690,-0.018557,-0.025997,-0.221717,-5.326079,26.013481,-58.074253,,,,,,,
1508183695.684806,-0.058327,-0.082881,3.084953,-0.493410,-0.134561,-0.118083,-0.058094,0.082786,-0.994873,-0.015408,-0.016487,-0.248825,-5.501581,26.285095,-57.935425,,,,,,,
1508183695.704810,-0.060130,-0.093493,3.082641,-0.508526,-0.020702,-0.055745,-0.059832,0.093357,-0.993833,-0.051817,-0.006717,-0.275561,-5.665651,26.700415,-57.729328,,,,,,,
1508183695.724804,-0.059415,-0.100003,3.081443,-0.191968,0.078217,-0.021163,-0.059083,0.099836,-0.993248,-0.068114,0.047487,-0.497063,-5.745774,27.477079,-57.355759,,,,,,,
1508183695.744804,-0.057276,-0.097439,3.082334,0.326196,0.074741,0.054206,-0.056973,0.097285,-0.993625,-0.063968,0.068441,-0.566129,-5.654810,27.533590,-57.337700,,,,,,,
1508183695.764807,-0.057103,-0.085465,3.083103,0.752084,-0.028508,-0.038451,-0.056864,0.085361,-0.994726,-0.050192,0.060269,-0.641642,-5.563011,27.102497,-57.551670,,,,,,,
1508183695.784832,-0.057961,-0.066592,3.082313,1.040756,-0.018861,-0.104918,-0.057800,0.066543,-0.996108,-0.074936,0.054444,-0.629869,-5.656466,25.900793,-58.093380,,,,,,,
1508183695.804840,-0.056621,-0.042040,3.082563,1.342373,0.116189,-0.024997,-0.056541,0.042028,-0.997515,-0.059060,0.080973,-0.611860,-5.677233,24.919651,-58.518948,,,,,,,
1508183695.824835,-0.053651,-0.010996,3.084815,1.698902,0.136180,0.054418,-0.053622,0.010996,-0.998501,-0.010373,0.123770,-0.608585,-5.537605,23.288898,-59.200081,,,,,,,
1508183695.844830,-0.052451,0.029731,3.089151,2.247470,-0.006868,0.139252,-0.052403,-0.029726,-0.998183,0.008092,0.136690,-0.560258,-5.333524,20.544081,-60.226089,,,,,,,
1508183695.864858,-0.055469,0.079846,3.094454,2.666291,-0.190123,0.104275,-0.055264,-0.079761,-0.995281,0.007702,0.177066,-0.507710,-5.353090,18.412188,-60.909958,,,,,,,
1508183695.884863,-0.060623,0.137410,3.099028,3.033272,-0.234842,0.048134,-0.060015,-0.136978,-0.988754,0.001207,0.218399,-0.411728,-5.500388,15.973707,-61.581440,,,,,,,
1508183695.904863,-0.065175,0.203920,3.104269,3.513494,-0.157197,0.046648,-0.063780,-0.202509,-0.977201,0.004682,0.235010,-0.219958,-5.880996,10.190225,-62.763527,,,,,,,
1508183695.924876,-0.068719,0.277413,3.110319,3.764740,-0.083759,0.046461,-0.066039,-0.273868,-0.959497,0.025985,0.228885,-0.093313,-6.032306,5.602454,-63.323860,,,,,,,
1508183695.944857,-0.071976,0.351989,3.116813,3.692936,-0.039015,0.053330,-0.067505,-0.344766,-0.936258,0.040360,0.268121,-0.043402,-6.078489,3.238365,-63.484268,,,,,,,
1508183695.964861,-0.075234,0.423891,3.125058,3.571208,-0.001928,0.166977,-0.068511,-0.411310,-0.908917,0.006820,0.256418,0.121060,-6.142189,-3.760277,-63.449356,,,,,,,
1508183695.984884,-0.080649,0.493940,3.135720,3.530743,-0.042445,0.191054,-0.070932,-0.474098,-0.877610,0.011774,0.332405,0.207948,-6.197145,-8.213699,-63.022358,,,,,,,
1508183696.004889,-0.085700,0.565045,-3.137580,3.573093,0.017368,0.105917,-0.072291,-0.535454,-0.841465,0.008464,0.357933,0.228123,-6.236579,-10.432127,-62.689415,,,,,,,
1508183696.024884,-0.090456,0.633612,-3.127135,3.348309,0.090836,0.150871,-0.072799,-0.592059,-0.802599,-0.009034,0.300968,0.388690,-6.237518,-16.988644,-61.238605,,,,,,,
1508183696.044830,-0.095054,0.694495,-3.114771,2.884944,0.190920,0.232939,-0.072927,-0.639997,-0.764908,-0.000300,0.330168,0.417649,-6.180951,-19.936409,-60.349171,,,,,,,
1508183696.064836,-0.098817,0.744667,-3.101518,2.341165,0.278362,0.254471,-0.072544,-0.677727,-0.731727,0.025073,0.372627,0.492637,-6.083723,-22.507605,-59.448158,,,,,,,
1508183696.084831,-0.102872,0.784758,-3.088471,1.870612,0.206007,0.272934,-0.072660,-0.706654,-0.703819,0.052152,0.419972,0.581169,-5.815601,-26.486767,-57.812775,,,,,,,
1508183696.104830,-0.108855,0.816999,-3.076737,1.547592,0.077344,0.198269,-0.074354,-0.729095,-0.680361,0.046065,0.448639,0.589159,-5.778458,-28.438217,-56.882023,,,,,,,
1508183696.124834,-0.115773,0.845727,-3.067725,1.400060,-0.056679,0.118218,-0.076608,-0.748453,-0.658748,0.015695,0.452631,0.586681,-5.820857,-29.708603,-56.224586,,,,,,,
1508183696.144859,-0.123119,0.869192,-3.059569,1.051255,-0.043853,0.140686,-0.079266,-0.763808,-0.640558,-0.036045,0.367644,0.667108,-5.991972,-31.524906,-55.208374,,,,,,,
1508183696.164864,-0.129037,0.883728,-3.052103,0.560972,0.013808,0.132753,-0.081618,-0.773109,-0.629000,-0.047685,0.379234,0.662539,-6.087792,-32.282646,-54.758167,,,,,,,
1508183696.184862,-0.130619,0.888245,-3.048386,0.062928,0.085460,0.054248,-0.082157,-0.775966,-0.625401,-0.058102,0.371578,0.643849,-6.138273,-32.805695,-54.440750,,,,,,,
1508183696.204856,-0.126743,0.884915,-3.049788,-0.293009,0.188042,-0.061067,-0.080058,-0.773861,-0.628275,-0.052480,0.376492,0.617030,-6.011024,-32.760574,-54.482101,,,,,,,
1508183696.224882,-0.118309,0.876420,-3.053860,-0.513816,0.293594,-0.080559,-0.075530,-0.768453,-0.635433,-0.048005,0.370107,0.596340,-5.793198,-32.476711,-54.675308,,,,,,,
1508183696.244889,-0.108205,0.864239,-3.058171,-0.675582,0.390509,-0.049854,-0.070112,-0.760601,-0.645422,-0.029284,0.344174,0.547537,-5.514525,-32.060867,-54.948868,,,,,,,
1508183696.264884,-0.097465,0.848880,-3.060635,-0.840348,0.452208,0.013353,-0.064305,-0.750541,-0.657688,-0.000499,0.283027,0.434940,-4.821378,-30.913567,-55.666805,,,,,,,
1508183696.284899,-0.086348,0.829355,-3.063888,-1.066277,0.425755,-0.050081,-0.058243,-0.737496,-0.672835,0.008346,0.255441,0.424590,-4.450544,-30.162083,-56.108185,,,,,,,
1508183696.304887,-0.074965,0.806096,-3.069264,-1.225596,0.336404,-0.094517,-0.051852,-0.721590,-0.690377,-0.005567,0.200899,0.340187,-4.070825,-29.264946,-56.609879,,,,,,,
1508183696.324903,-0.066039,0.780635,-3.074093,-1.307718,0.249066,-0.089990,-0.046885,-0.703731,-0.708918,-0.053686,0.209468,0.253855,-3.447776,-27.159420,-57.690262,,,,,,,
1508183696.344918,-0.055676,0.753154,-3.080817,-1.447381,0.323874,-0.193335,-0.040596,-0.683943,-0.728405,-0.054878,0.195388,0.244396,-3.176476,-26.006001,-58.234741,,,,,,,
1508183696.364913,-0.041502,0.722552,-3.089203,-1.594612,0.467845,-0.257158,-0.031122,-0.661301,-0.749475,-0.045477,0.196793,0.206979,-2.813651,-24.744553,-58.800323,,,,,,,
1508183696.384910,-0.026140,0.689987,-3.097872,-1.652516,0.482820,-0.280790,-0.020158,-0.636527,-0.770991,0.013902,0.167639,0.095698,-1.802681,-21.915796,-59.951111,,,,,,,
1508183696.404935,-0.013193,0.656579,-3.105196,-1.681938,0.357026,-0.228828,-0.010450,-0.610411,-0.792016,0.014402,0.162794,0.061974,-1.147950,-19.911263,-60.662270,,,,,,,
1508183696.424912,-0.004989,0.623143,-3.111383,-1.657900,0.167448,-0.248489,-0.004051,-0.583590,-0.812038,0.013862,0.177691,0.062344,-0.903847,-18.888803,-60.992485,,,,,,,
1508183696.444937,0.001877,0.589798,-3.117302,-1.669675,0.205732,-0.214914,0.001560,-0.556193,-0.831052,0.037579,0.155146,0.074414,-0.441975,-15.818645,-61.864872,,,,,,,
1508183696.464952,0.008123,0.556996,-3.120535,-1.635071,0.201248,-0.107178,0.006895,-0.528639,-0.848819,0.022264,0.078627,0.015826,-0.110925,-13.772280,-62.353825,,,,,,,
1508183696.484941,0.012447,0.523352,-3.122251,-1.690527,0.157551,-0.089442,0.010781,-0.499787,-0.866081,0.006462,0.064743,-0.000221,0.023145,-12.742912,-62.572395,,,,,,,
1508183696.504936,0.015499,0.489473,-3.125057,-1.610409,0.066170,-0.214000,0.013678,-0.470160,-0.882475,-0.067267,0.101020,-0.047914,0.302273,-9.528843,-63.141090,,,,,,,
1508183696.524951,0.019622,0.456953,-3.131435,-1.666496,0.064330,-0.352551,0.017608,-0.441216,-0.897228,-0.022231,0.077934,-0.110142,0.398311,-8.009701,-63.351189,,,,,,,
1508183696.544964,0.026201,0.422563,-3.138162,-1.716134,0.243232,-0.317787,0.023894,-0.410099,-0.911728,0.058015,0.070179,-0.130676,0.572665,-5.877987,-63.583080,,,,,,,
1508183696.564964,0.030357,0.387941,3.141480,-1.746946,0.017027,-0.125748,0.028097,-0.378283,-0.925263,0.042749,-0.094495,-0.170852,0.920834,-3.136740,-63.773041,,,,,,,
1508183696.584988,0.023547,0.346746,-3.140926,-2.308894,-0.513569,-0.000339,0.022144,-0.339839,-0.940223,-0.053119,-0.145589,-0.215081,0.675746,-0.685928,-63.849510,,,,,,,
1508183696.604967,0.011669,0.290244,3.140487,-3.174017,-0.637442,-0.271933,0.011181,-0.286186,-0.958109,-0.104412,-0.175469,-0.230459,0.327583,0.847090,-63.850311,,,,,,,
1508183696.624992,0.005784,0.214381,3.130024,-4.197104,-0.294484,-0.653610,0.005652,-0.212743,-0.977092,-0.063956,-0.168345,-0.305882,-0.790101,5.295261,-63.575069,,,,,,,
1508183696.645005,0.000614,0.111099,3.113452,-5.788637,-0.516097,-0.964827,0.000610,-0.110870,-0.993835,0.012589,-0.239380,-0.316590,-1.162777,9.618808,-63.060131,,,,,,,
1508183696.664994,-0.006376,-0.010444,3.095832,-5.892210,-0.261017,-0.663486,-0.006376,0.010444,-0.999925,0.057065,0.104714,-0.340865,-1.799461,14.992573,-61.987404,,,,,,,
1508183696.685008,-0.010355,-0.100356,3.089776,-3.443421,-0.148817,-0.079419,-0.010303,0.100188,-0.994915,0.110614,0.719163,-0.796680,-2.622483,24.866972,-58.695911,,,,,,,
1508183696.705018,-0.009139,-0.130942,3.089001,-0.457892,0.199819,-0.072853,-0.009061,0.130568,-0.991398,0.161542,0.602891,-0.871349,-2.692697,27.184778,-57.655796,,,,,,,
1508183696.725003,-0.005591,-0.118182,3.086839,1.026534,0.139748,-0.049636,-0.005552,0.117907,-0.993009,0.083433,0.293378,-0.718478,-2.564312,27.607262,-57.460567,,,,,,,
1508183696.745018,-0.003593,-0.097602,3.088516,0.930758,0.124560,0.099938,-0.003576,0.097447,-0.995234,-0.061213,-0.057362,-0.361394,-2.356663,25.980080,-58.223152,,,,,,,
1508183696.765040,0.002904,-0.084004,3.088632,0.551534,0.453069,-0.061288,0.002894,0.083905,-0.996470,-0.093104,-0.068188,-0.272131,-2.156789,25.260626,-58.546585,,,,,,,
1508183696.785020,0.014124,-0.074236,3.086195,0.500610,0.600205,-0.122030,0.014085,0.074168,-0.997146,-0.062715,-0.038203,-0.174652,-1.633238,24.625149,-58.833565,,,,,,,
1508183696.805046,0.024042,-0.062437,3.084265,0.636173,0.415768,-0.062943,0.023993,0.062396,-0.997763,0.027307,-0.059939,-0.082101,-0.873730,23.822063,-59.179386,,,,,,,
1508183696.825058,0.028485,-0.049157,3.083520,0.667244,0.114165,0.004319,0.028447,0.049138,-0.998387,0.005778,-0.052678,-0.055324,-0.588975,23.241259,-59.413387,,,,,,,
1508183696.845062,0.028603,-0.036847,3.082756,0.561505,-0.012462,-0.050279,0.028579,0.036839,-0.998912,-0.038894,-0.036152,0.003429,-0.483817,22.456165,-59.715492,,,,,,,
1508183696.865045,0.030236,-0.028346,3.080920,0.343703,0.146380,-0.084408,0.030219,0.028342,-0.999141,-0.027976,-0.036933,0.043880,-0.469005,21.697096,-59.995583,,,,,,,
1508183696.885060,0.033565,-0.023456,3.079774,0.209055,0.156936,-0.019416,0.033550,0.023453,-0.999162,0.027531,-0.011033,0.028688,-0.298709,21.360394,-60.117367,,,,,,,
1508183696.905077,0.035172,-0.019597,3.080177,0.196783,0.037500,0.047370,0.035158,0.019596,-0.999190,0.033903,0.005795,0.022734,-0.215210,21.239374,-60.160587,,,,,,,
1508183696.925071,0.034705,-0.015181,3.080977,0.228059,-0.053038,0.040129,0.034694,0.015180,-0.999283,0.003758,0.040102,0.014694,-0.143256,20.870955,-60.289604,,,,,,,
1508183696.945094,0.034069,-0.010654,3.081187,0.221397,-0.006103,0.008530,0.034060,0.010653,-0.999363,0.001569,0.035154,0.017521,-0.178740,20.664616,-60.360542,,,,,,,
1508183696.965074,0.034123,-0.006659,3.081235,0.175395,-0.007161,0.010713,0.034116,0.006659,-0.999396,0.011539,0.013727,0.014960,-0.179501,20.400633,-60.450275,,,,,,,
1508183696.985099,0.043167,-0.001140,3.081490,0.055761,-0.061460,0.023314,0.043153,0.001140,-0.999068,0.031584,-0.020916,0.020033,0.078334,20.178030,-60.525158,,,,,,,
1508183697.005111,0.040627,-0.001995,3.082520,-0.104304,-0.169087,0.062315,0.040616,0.001995,-0.999173,0.043765,-0.019771,0.010403,0.326429,19.957676,-60.597347,,,,,,,
1508183697.025102,0.042711,-0.002749,3.084457,-0.224871,-0.234113,0.108130,0.042698,0.002749,-0.999084,0.053890,-0.018328,-0.008194,0.194086,20.050964,-60.567108,,,,,,,
1508183697.045120,0.036758,-0.008687,3.087279,-0.347557,-0.330007,0.135204,0.036748,0.008687,-0.999287,0.095133,-0.005910,-0.092174,0.184940,20.319130,-60.477703,,,,,,,
1508183697.065130,0.030570,-0.017003,3.090564,-0.468512,-0.288485,0.161350,0.030561,0.017002,-0.999388,0.101336,-0.010425,-0.120836,-0.067758,20.659672,-60.362465,,,,,,,
1508183697.085119,0.026337,-0.027460,3.094367,-0.548025,-0.161730,0.175566,0.026324,0.027456,-0.999276,0.096815,-0.024206,-0.155112,-0.277390,21.083651,-60.215088,,,,,,,
1508183697.105124,0.024057,-0.038950,3.097824,-0.608185,-0.111595,0.148226,0.024037,0.038940,-0.998952,0.143489,-0.061813,-0.191355,-0.457435,22.081451,-59.855274,,,,,,,
1508183697.125146,0.021076,-0.054023,3.100412,-0.882124,-0.183828,0.081236,0.021043,0.053996,-0.998319,0.168974,-0.096034,-0.202364,-0.562982,22.904099,-59.544430,,,,,,,
1508183697.145128,0.018554,-0.075017,3.102922,-1.115442,-0.073159,0.168309,0.018501,0.074947,-0.997016,0.214074,-0.086895,-0.225976,-0.695473,23.761995,-59.205891,,,,,,,
1508183697.165130,0.017929,-0.095157,3.110908,-0.881080,-0.067508,0.509268,0.017847,0.095014,-0.995316,0.291006,0.051745,-0.275146,-0.649307,25.349617,-58.544247,,,,,,,
1508183697.185164,0.018987,-0.104785,3.123633,-0.224872,0.011915,0.662238,0.018882,0.104594,-0.994336,0.327203,0.169729,-0.392703,-0.383385,26.122875,-58.205692,,,,,,,
1508183697.205161,0.020469,-0.100219,3.137724,0.429257,-0.020346,0.732591,0.020364,0.100051,-0.994774,0.342093,0.189637,-0.429726,-0.199616,26.198105,-58.172787,,,,,,,
1508183697.225151,0.021974,-0.085697,-3.128706,0.891008,0.042995,0.961647,0.021892,0.085592,-0.996090,0.277043,0.181711,-0.395695,0.373375,25.371334,-58.537251,,,,,,,
1508183697.245155,0.025786,-0.060785,-3.104952,1.397128,0.108146,1.345257,0.025736,0.060748,-0.997821,0.220221,0.210614,-0.382916,0.841839,24.458012,-58.919868,,,,,,,
1508183697.265181,0.028603,-0.027799,-3.077380,1.713211,0.056773,1.426804,0.028588,0.027795,-0.999205,0.153510,0.221198,-0.313280,1.604310,22.718023,-59.596741,,,,,,,
1508183697.285172,0.028966,0.009673,-3.049966,1.902818,-0.013593,1.430871,0.028961,-0.009673,-0.999534,0.030549,0.170272,-0.173791,2.416695,20.003645,-60.534847,,,,,,,
1508183697.305200,0.027188,0.049214,-3.021825,1.920313,-0.086132,1.479894,0.027152,-0.049194,-0.998420,-0.016914,0.178055,-0.155648,2.811870,18.186281,-61.088512,,,,,,,
1508183697.325184,0.023205,0.088017,-2.992423,1.910862,-0.087303,1.534299,0.023113,-0.087903,-0.995861,-0.076808,0.196943,-0.089955,3.209227,15.743870,-61.743706,,,,,,,
1508183697.345196,0.018577,0.128729,-2.962447,2.073367,-0.064926,1.510394,0.018422,-0.128373,-0.991555,-0.169729,0.225236,0.014596,3.629328,12.584602,-62.441246,,,,,,,
1508183697.365217,0.012742,0.172084,-2.934150,2.172503,-0.072161,1.386734,0.012554,-0.171236,-0.985150,-0.200038,0.203585,0.120953,3.859729,9.815749,-62.922230,,,,,,,
1508183697.385210,0.007097,0.215806,-2.907088,2.152855,-0.001740,1.331346,0.006932,-0.214135,-0.976779,-0.218205,0.222772,0.157138,3.947030,8.389236,-63.122860,,,,,,,
1508183697.405205,0.001709,0.257895,-2.880860,2.057129,0.070890,1.246126,0.001653,-0.255046,-0.966928,-0.265645,0.213191,0.302362,4.210185,4.158934,-63.525047,,,,,,,
1508183697.425235,-0.002625,0.297139,-2.856788,1.893804,0.137271,1.098137,-0.002510,-0.292786,-0.956175,-0.265862,0.226044,0.321714,4.351951,2.151428,-63.615135,,,,,,,
1508183697.445224,-0.005957,0.332420,-2.835272,1.680369,0.170590,0.976255,-0.005631,-0.326332,-0.945238,-0.274811,0.211677,0.375964,4.502710,0.269484,-63.640450,,,,,,,
1508183697.465232,-0.010343,0.362485,-2.815634,1.405270,0.075019,0.860554,-0.009671,-0.354599,-0.934969,-0.302692,0.193252,0.451006,4.748323,-3.001614,-63.552319,,,,,,,
1508183697.485253,-0.014894,0.386563,-2.799538,1.095341,0.074453,0.649667,-0.013795,-0.377008,-0.926107,-0.316009,0.196969,0.471167,4.767141,-4.325491,-63.474548,,,,,,,
1508183697.505234,-0.018015,0.403685,-2.788099,0.727634,0.067518,0.434651,-0.016566,-0.392810,-0.919470,-0.327428,0.185779,0.468436,4.787150,-5.412697,-63.389587,,,,,,,
1508183697.525260,-0.018831,0.414235,-2.780017,0.431696,0.151963,0.325952,-0.017237,-0.402490,-0.915262,-0.317357,0.187219,0.447977,4.870975,-6.790649,-63.250408,,,,,,,
1508183697.545271,-0.017537,0.420558,-2.774790,0.253490,0.174691,0.169010,-0.016008,-0.408270,-0.912721,-0.303511,0.212240,0.430421,5.041199,-7.279093,-63.182709,,,,,,,
1508183697.565263,-0.014409,0.423304,-2.773310,0.074210,0.194231,0.007849,-0.013137,-0.410775,-0.911642,-0.297944,0.213723,0.419668,5.141176,-7.431824,-63.156868,,,,,,,
1508183697.585258,-0.010581,0.423493,-2.775116,-0.012740,0.130625,-0.135114,-0.009646,-0.410948,-0.911608,-0.273054,0.222303,0.367586,5.477194,-7.554501,-63.114052,,,,,,,
1508183697.605289,-0.005966,0.422851,-2.779929,-0.059225,0.137307,-0.274861,-0.005440,-0.410362,-0.911906,-0.247245,0.181435,0.343608,5.669336,-7.505829,-63.102894,,,,,,,
1508183697.625294,0.000692,0.419660,-2.788720,-0.235414,0.153730,-0.475432,0.000632,-0.407450,-0.913227,-0.231864,0.153940,0.322346,5.781425,-7.441463,-63.100346,,,,,,,
1508183697.645275,0.008063,0.411208,-2.800741,-0.554478,0.097570,-0.584207,0.007391,-0.399717,-0.916609,-0.181509,0.105970,0.235685,6.160293,-6.825182,-63.134155,,,,,,,
1508183697.665280,0.014064,0.395693,-2.814265,-0.867968,0.009372,-0.653069,0.012977,-0.385448,-0.922639,-0.169822,0.107387,0.197846,6.284215,-6.153582,-63.190945,,,,,,,
1508183697.685287,0.018983,0.377483,-2.828012,-0.883889,-0.022603,-0.641930,0.017645,-0.368581,-0.929428,-0.180472,0.166769,0.165726,6.361951,-4.967083,-63.287498,,,,,,,
1508183697.705314,0.023070,0.361865,-2.841905,-0.676358,-0.055580,-0.690657,0.021574,-0.354019,-0.934989,-0.165266,0.236130,0.141776,6.377042,-3.539040,-63.381878,,,,,,,
1508183697.725324,0.027300,0.351268,-2.857210,-0.423996,-0.064044,-0.751503,0.025630,-0.344088,-0.938587,-0.160594,0.229968,0.145512,6.360165,-2.893402,-63.416325,,,,,,,
1508183697.745330,0.030703,0.343272,-2.873323,-0.384251,-0.133262,-0.767590,0.028908,-0.336570,-0.941215,-0.170860,0.154014,0.174872,6.306557,-2.271616,-63.446991,,,,,,,
1508183697.765314,0.031352,0.333408,-2.889941,-0.532681,-0.299289,-0.823718,0.029620,-0.327265,-0.944468,-0.160022,0.113719,0.149058,6.052940,-1.486164,-63.494938,,,,,,,
1508183697.785342,0.029665,0.317568,-2.907319,-0.925229,-0.391799,-0.857269,0.028178,-0.312257,-0.949580,-0.135828,0.071321,0.110453,5.639086,-0.538971,-63.548122,,,,,,,
1508183697.805345,0.027222,0.294236,-2.924604,-1.245188,-0.381079,-0.850787,0.026049,-0.290009,-0.956669,-0.134691,0.066269,0.104741,5.391458,0.128437,-63.571766,,,,,,,
1508183697.825340,0.023179,0.267494,-2.942232,-1.362725,-0.508749,-0.914958,0.022353,-0.264315,-0.964177,-0.099059,0.057787,0.027425,9.091019,0.270681,-62.456360,,,,,,,
1508183697.845360,0.016059,0.235851,-2.962288,-1.722278,-0.658577,-1.055400,0.015614,-0.233671,-0.972190,-0.069569,-0.011294,0.014900,8.559864,1.737414,-62.507812,,,,,,,
1508183697.865358,0.005516,0.192104,-2.985572,-2.500324,-0.807175,-1.225402,0.005414,-0.190925,-0.981590,0.009021,-0.078988,-0.093636,7.629755,4.177098,-62.512844,,,,,,,
1508183697.885368,-0.004818,0.132602,-3.012031,-3.231925,-0.684251,-1.344995,-0.004776,-0.132213,-0.991210,0.053528,0.003826,-0.174470,6.231270,8.588098,-62.216820,,,,,,,
1508183697.905378,-0.017976,0.058799,-3.041526,-4.013990,-0.896807,-1.492741,-0.017944,-0.058765,-0.998111,0.150253,-0.040173,-0.205655,5.354411,11.882053,-61.754868,,,,,,,
1508183697.925383,-0.035988,-0.030218,-3.074525,-4.695476,-0.911611,-1.462158,-0.035964,0.030214,-0.998896,0.281615,0.040984,-0.240713,3.816853,17.069605,-60.643028,,,,,,,
1508183697.945390,-0.053988,-0.121809,-3.100477,-4.512230,-0.721084,-0.876460,-0.053562,0.121508,-0.991144,0.203785,0.251585,-0.236044,1.867548,24.105461,-58.300564,,,,,,,
1508183697.965394,-0.065321,-0.197552,-3.120688,-3.213284,-0.161390,-0.729872,-0.064005,0.196269,-0.978459,0.269251,0.485112,-0.431850,0.816140,28.894880,-56.106480,,,,,,,
1508183697.985379,-0.067903,-0.231743,-3.136883,-0.865942,0.082809,-0.621080,-0.066037,0.229675,-0.971025,0.320966,0.506821,-0.570418,0.546221,30.535757,-55.233921,,,,,,,
1508183698.005394,-0.069277,-0.227609,3.137136,0.618271,0.003071,-0.351263,-0.067436,0.225649,-0.971872,0.265724,0.201262,-0.460745,0.098838,31.718403,-54.566017,,,,,,,
1508183698.025388,-0.070133,-0.211358,3.134177,0.806187,0.009001,-0.143561,-0.068516,0.209788,-0.975343,0.183353,0.110585,-0.388258,-0.042755,31.120810,-54.909107,,,,,,,
1508183698.045403,-0.066895,-0.197922,3.132652,0.547534,0.309388,-0.107204,-0.065540,0.196632,-0.978284,0.070209,-0.011955,-0.237383,-0.081555,30.261528,-55.387276,,,,,,,
1508183698.065425,-0.057718,-0.190184,3.131279,0.314782,0.522444,-0.082395,-0.056646,0.189039,-0.980334,0.046560,-0.046339,-0.170438,0.368861,29.596558,-55.744278,,,,,,,
1508183698.085432,-0.048647,-0.183922,3.130067,0.330126,0.409507,-0.073305,-0.047808,0.182887,-0.981971,0.055514,-0.036616,-0.142587,0.758546,29.342510,-55.874489,,,,,,,
1508183698.105438,-0.042927,-0.176027,3.129086,0.427016,0.228363,-0.057955,-0.042251,0.175119,-0.983640,0.046294,-0.019952,-0.108416,1.146886,28.959166,-56.067532,,,,,,,
1508183698.125419,-0.039678,-0.167673,3.128379,0.384438,0.160184,-0.050536,-0.039111,0.166889,-0.985200,-0.014493,-0.027881,-0.060546,1.391545,28.367088,-56.363895,,,,,,,
1508183698.145450,-0.035820,-0.161371,3.127678,0.272985,0.225175,-0.042865,-0.035347,0.160672,-0.986375,-0.020363,-0.010571,-0.037993,1.570208,27.982969,-56.550907,,,,,,,
1508183698.165452,-0.031521,-0.157281,3.127011,0.170314,0.209218,-0.040424,-0.031127,0.156634,-0.987166,-0.002015,-0.000933,-0.030748,1.687656,27.836985,-56.619526,,,,,,,
1508183698.185441,-0.028012,-0.153956,3.126500,0.168426,0.150582,-0.016114,-0.027677,0.153349,-0.987784,0.003751,0.014483,-0.004739,1.907228,27.630474,-56.713634,,,,,,,
1508183698.205467,-0.025580,-0.150078,3.126930,0.211499,0.110000,0.030294,-0.025290,0.149516,-0.988436,-0.018503,0.028844,-0.000410,2.150090,27.329529,-56.850597,,,,,,,
1508183698.225450,-0.022820,-0.145829,3.127765,0.199663,0.138752,0.036283,-0.022576,0.145313,-0.989128,-0.030495,0.023465,0.001457,2.223931,27.206957,-56.906525,,,,,,,
1508183698.245474,-0.024341,-0.146688,3.127830,0.083181,0.063177,0.018274,-0.024077,0.146163,-0.988967,0.006652,0.005738,0.001022,2.195786,27.057594,-56.978786,,,,,,,
1508183698.265455,-0.024180,-0.147891,3.128292,0.068427,0.001366,0.034110,-0.023914,0.147352,-0.988795,-0.007061,0.009798,0.005641,2.327310,27.099785,-56.953506,,,,,,,
1508183698.285478,-0.025470,-0.146632,3.129054,0.096280,0.006641,0.052130,-0.025194,0.146107,-0.988948,-0.015074,0.005596,0.006663,2.293807,27.117096,-56.946629,,,,,,,
1508183698.305473,-0.026735,-0.145399,3.130121,0.071664,0.021531,0.064729,-0.026450,0.144887,-0.989095,-0.022210,0.007823,-0.009730,2.273561,26.982456,-57.011356,,,,,,,
1508183698.325504,-0.028263,-0.146343,3.130652,0.044913,-0.040140,0.010196,-0.027957,0.145821,-0.988916,-0.006863,0.021446,-0.057715,2.131208,27.005302,-57.006039,,,,,,,
1508183698.345505,-0.029807,-0.145472,3.130645,0.041737,-0.055047,0.007216,-0.029487,0.144959,-0.988998,-0.008141,0.011718,-0.070298,2.131208,27.005302,-57.006039,,,,,,,
1508183698.365500,-0.032469,-0.143452,3.131392,0.060034,-0.009400,0.081182,-0.032130,0.142960,-0.989207,-0.023625,0.004287,-0.122076,1.861822,26.893661,-57.068214,,,,,,,
1508183698.385518,-0.032385,-0.142877,3.133269,0.022594,-0.006208,0.087561,-0.032049,0.142391,-0.989291,-0.021525,-0.002819,-0.139676,1.898980,26.843365,-57.090672,,,,,,,
1508183698.405504,-0.032733,-0.142264,3.134764,0.047263,-0.051971,0.063682,-0.032396,0.141784,-0.989367,-0.034117,0.009400,-0.193204,1.917483,26.829155,-57.096729,,,,,,,
1508183698.425529,-0.033822,-0.140666,3.135617,0.108150,-0.046605,0.035834,-0.033481,0.140203,-0.989557,-0.032513,0.004878,-0.289817,1.876681,26.732471,-57.143414,,,,,,,
1508183698.445532,-0.034362,-0.137904,3.136994,0.152125,-0.038172,0.075132,-0.034029,0.137467,-0.989922,-0.029325,0.008636,-0.332741,1.861603,26.624567,-57.194260,,,,,,,
1508183698.465532,-0.034601,-0.133537,3.138907,0.272005,-0.027590,0.095148,-0.034286,0.133140,-0.990504,-0.027374,0.026741,-0.385625,1.865554,26.429409,-57.284580,,,,,,,
1508183698.485527,-0.035424,-0.126584,3.141388,0.410223,-0.052192,0.128457,-0.035133,0.126246,-0.991377,-0.024300,0.040242,-0.479555,1.867984,25.992172,-57.484211,,,,,,,
1508183698.505558,-0.036432,-0.116400,-3.138415,0.575243,-0.098096,0.157789,-0.036178,0.116137,-0.992574,-0.053941,0.045804,-0.571604,1.872621,25.441177,-57.730034,,,,,,,
1508183698.525560,-0.038983,-0.102064,-3.134627,0.821584,-0.171665,0.160804,-0.038771,0.101887,-0.994040,-0.057406,0.073894,-0.604303,1.849474,25.090067,-57.884235,,,,,,,
1508183698.545555,-0.041912,-0.082157,-3.131246,1.101672,-0.148178,0.099474,-0.041758,0.082064,-0.995752,-0.093252,0.102872,-0.627570,1.676055,23.578152,-58.521610,,,,,,,
1508183698.565576,-0.043708,-0.056525,-3.129038,1.413672,-0.048025,0.049803,-0.043625,0.056495,-0.997449,-0.068955,0.123849,-0.582751,1.562937,22.156338,-59.077667,,,,,,,
1508183698.585562,-0.043181,-0.022888,-3.125476,1.850289,0.029467,0.130457,-0.043156,0.022886,-0.998806,-0.059291,0.161547,-0.563923,1.558774,21.286261,-59.396820,,,,,,,
1508183698.605567,-0.044215,0.017920,-3.121238,2.141682,-0.103725,0.112977,-0.044193,-0.017919,-0.998862,0.012470,0.163930,-0.465005,1.624494,17.898373,-60.502281,,,,,,,
1508183698.625581,-0.047928,0.062757,-3.116864,2.298258,-0.210307,0.122935,-0.047816,-0.062716,-0.996885,-0.020147,0.162066,-0.345354,1.478934,15.203473,-61.238747,,,,,,,
1508183698.645586,-0.052099,0.110151,-3.111872,2.425414,-0.146430,0.125113,-0.051760,-0.109928,-0.992591,-0.035063,0.190830,-0.260964,1.365717,13.780849,-61.577103,,,,,,,
1508183698.665580,-0.053859,0.159813,-3.107419,2.509387,-0.020636,0.066711,-0.053147,-0.159133,-0.985826,0.014481,0.175247,-0.031508,1.175606,9.235053,-62.424747,,,,,,,
1508183698.685611,-0.055599,0.209439,-3.103774,2.458109,-0.084473,0.034620,-0.054356,-0.207911,-0.976636,0.056752,0.158488,0.119428,1.136475,6.102079,-62.809155,,,,,,,
1508183698.705614,-0.059687,0.257240,-3.100163,2.360088,-0.216559,0.045140,-0.057689,-0.254412,-0.965374,0.049831,0.171175,0.143581,1.077099,4.562857,-62.940742,,,,,,,
1508183698.725608,-0.065596,0.303236,-3.096254,2.270168,-0.217578,0.033493,-0.062559,-0.298610,-0.952323,0.018598,0.199611,0.289115,0.673830,0.114582,-63.111404,,,,,,,
1508183698.745625,-0.068629,0.346929,-3.093089,2.140020,-0.035309,-0.007440,-0.064489,-0.340012,-0.938208,0.061773,0.238312,0.354528,0.488546,-2.689939,-63.055866,,,,,,,
1508183698.765610,-0.070162,0.387663,-3.089729,1.977503,-0.034286,0.034253,-0.064902,-0.378026,-0.923517,0.083518,0.268788,0.373148,0.473470,-4.027672,-62.984684,,,,,,,
1508183698.785635,-0.074438,0.425530,-3.084597,1.894757,-0.151670,0.149045,-0.067737,-0.412803,-0.908298,0.101063,0.287346,0.461002,0.354154,-7.732864,-62.638599,,,,,,,
1508183698.805647,-0.081549,0.464535,-3.077019,2.022399,-0.205055,0.194508,-0.072826,-0.448007,-0.891059,0.080303,0.322778,0.536551,0.098571,-10.156448,-62.292488,,,,,,,
1508183698.825639,-0.089324,0.504993,-3.068463,2.026686,-0.178478,0.220777,-0.078070,-0.483801,-0.871689,0.068442,0.329245,0.566315,-0.048599,-11.422941,-62.072792,,,,,,,
1508183698.845634,-0.097388,0.541770,-3.058602,1.749565,-0.135892,0.267285,-0.083310,-0.515654,-0.852737,0.030865,0.271971,0.682647,-0.463165,-15.083993,-61.284382,,,,,,,
1508183698.865664,-0.104249,0.570516,-3.048455,1.288112,-0.018655,0.294721,-0.087579,-0.540067,-0.837053,0.015542,0.259686,0.709810,-0.637159,-16.590431,-60.892269,,,,,,,
1508183698.885667,-0.107920,0.589550,-3.039288,0.824266,0.114686,0.259014,-0.089528,-0.555987,-0.826355,-0.025981,0.244845,0.706650,-0.741340,-18.073229,-60.467560,,,,,,,
