timestamp(unix),attitude_roll(radians),attitude_pitch(radians),attitude_yaw(radians),rotation_rate_x(radians/s),rotation_rate_y(radians/s),rotation_rate_z(radians/s),gravity_x(G),gravity_y(G),gravity_z(G),user_acc_x(G),user_acc_y(G),user_acc_z(G),magnetic_field_x(microteslas),magnetic_field_y(microteslas),magnetic_field_z(microteslas),latitude(degree),longitude(degree),altitude(meter),speed(m/s),course(degree),timestamp(unix),User Mark
1508436980.713204,-0.091972,0.039507,-0.697603,0.165885,0.068108,-0.048365,-0.091771,-0.039496,-0.994997,0.029622,-0.007302,0.021150,-2.767115,3.144172,-53.689522,,,,,,,
1508436980.733183,-0.090229,0.043505,-0.697948,0.204387,0.086186,-0.037993,-0.090021,-0.043491,-0.994990,0.027261,-0.005871,0.020991,-2.727871,3.049859,-53.696968,,,,,,,
1508436980.753196,-0.086746,0.047140,-0.699203,0.149525,0.119345,-0.097080,-0.086541,-0.047123,-0.995133,0.017754,-0.015881,0.034516,-2.509927,2.733691,-53.724617,,,,,,,
1508436980.773217,-0.082630,0.049130,-0.700799,0.063635,0.238631,-0.076353,-0.082436,-0.049110,-0.995386,0.007546,-0.021599,0.041070,-2.389219,2.629227,-53.735332,,,,,,,
1508436980.793199,-0.078269,0.050474,-0.702422,0.064803,0.188595,-0.091623,-0.078090,-0.050453,-0.995669,0.046809,0.014579,0.011111,-2.204143,2.572885,-53.745968,,,,,,,
1508436980.813225,-0.071246,0.051021,-0.703466,0.098126,0.216146,-0.018473,-0.071093,-0.050999,-0.996165,0.015963,0.010579,0.011332,-1.727010,2.519511,-53.765945,,,,,,,
1508436980.833232,-0.066333,0.054231,-0.703615,0.200691,0.240675,-0.045563,-0.066187,-0.054205,-0.996334,0.003184,0.045080,-0.010716,-1.535789,2.421702,-53.776241,,,,,,,
1508436980.853227,-0.060344,0.060173,-0.704759,0.358742,0.339718,-0.053516,-0.060198,-0.060137,-0.996373,0.037508,0.063387,-0.018641,-1.339141,2.258195,-53.788612,,,,,,,
1508436980.873222,-0.051608,0.066817,-0.703513,0.449958,0.396953,0.081005,-0.051470,-0.066768,-0.996440,0.041292,0.015620,-0.039479,-0.925274,1.995757,-53.807697,,,,,,,
1508436980.893245,-0.042428,0.076363,-0.701232,0.497917,0.482124,0.098927,-0.042291,-0.076288,-0.996188,0.019007,0.042826,-0.055569,-0.239774,1.259353,-53.837383,,,,,,,
1508436980.913224,-0.032820,0.086666,-0.698886,0.556853,0.444843,0.090893,-0.032691,-0.086558,-0.995710,0.032691,0.043528,-0.048113,-0.239774,1.259353,-53.837383,,,,,,,
1508436980.933250,-0.025216,0.098150,-0.697625,0.579329,0.365087,0.019525,-0.025092,-0.097993,-0.994871,0.042304,0.025819,-0.011767,0.532178,0.412566,-53.848434,,,,,,,
1508436980.953260,-0.016109,0.109871,-0.696559,0.570955,0.374550,0.085505,-0.016011,-0.109650,-0.993841,0.038854,-0.016571,-0.022394,1.127336,-0.379096,-53.839508,,,,,,,
1508436980.973252,-0.009869,0.120534,-0.694510,0.497315,0.306398,0.083349,-0.009797,-0.120242,-0.992696,0.043015,-0.014325,-0.020396,1.127336,-0.379096,-53.839508,,,,,,,
1508436980.993258,-0.003692,0.129093,-0.693410,0.387899,0.335300,0.026498,-0.003661,-0.128735,-0.991672,0.001784,-0.011631,0.011982,1.759963,-1.392875,-53.805855,,,,,,,
1508436981.013264,0.003548,0.135928,-0.693859,0.321244,0.363154,-0.044232,0.003516,-0.135510,-0.990770,0.021066,-0.012241,0.036928,2.305540,-2.009349,-53.765736,,,,,,,
1508436981.033280,0.010023,0.141943,-0.694502,0.287394,0.268288,-0.009775,0.009922,-0.141467,-0.989893,0.023861,-0.023297,0.044001,2.305540,-2.009349,-53.765736,,,,,,,
1508436981.053275,0.014626,0.148813,-0.695079,0.239545,0.135208,-0.038732,0.014464,-0.148264,-0.988842,0.016069,-0.014989,0.077999,2.808301,-2.492113,-53.721596,,,,,,,
1508436981.073261,0.016946,0.152330,-0.696271,0.128300,0.105438,-0.053145,0.016749,-0.151742,-0.988278,-0.010295,-0.046393,0.102368,3.081296,-2.937893,-53.684093,,,,,,,
1508436981.093278,0.018674,0.153048,-0.697674,-0.005407,0.044832,-0.092685,0.018454,-0.152451,-0.988139,-0.008536,-0.042159,0.098643,3.138607,-2.993973,-53.677670,,,,,,,
1508436981.113273,0.020236,0.152601,-0.699870,-0.013035,0.088514,-0.095445,0.020000,-0.152010,-0.988177,-0.050288,0.010424,0.121935,3.243025,-2.983347,-53.672058,,,,,,,
1508436981.133303,0.022474,0.152711,-0.701577,0.015805,0.102362,-0.098867,0.022210,-0.152119,-0.988113,-0.042199,0.030445,0.141357,3.350441,-2.977957,-53.665760,,,,,,,
1508436981.153310,0.024306,0.152594,-0.704106,-0.026901,0.034261,-0.130902,0.024021,-0.152003,-0.988088,-0.055958,0.022379,0.146978,3.408858,-2.982257,-53.661839,,,,,,,
1508436981.173301,0.024468,0.151159,-0.707154,-0.087822,-0.039135,-0.175643,0.024186,-0.150584,-0.988301,-0.033708,0.027354,0.148580,3.465329,-2.911838,-53.662090,,,,,,,
1508436981.193317,0.023196,0.148152,-0.710519,-0.184886,-0.122240,-0.155172,0.022940,-0.147611,-0.988779,-0.021384,-0.005221,0.113642,3.402404,-2.768817,-53.673687,,,,,,,
1508436981.213309,0.019289,0.143087,-0.713552,-0.296891,-0.254277,-0.167035,0.019091,-0.142600,-0.989596,0.001203,0.006064,0.089557,3.329438,-2.658716,-53.683830,,,,,,,
1508436981.233323,0.013165,0.134285,-0.717439,-0.333420,-0.288211,-0.241157,0.013046,-0.133881,-0.990911,-0.023865,0.047471,0.037268,2.937798,-2.167013,-53.728771,,,,,,,
1508436981.253330,0.008684,0.126875,-0.723442,-0.399052,-0.252886,-0.319460,0.008614,-0.126534,-0.991925,0.015373,-0.000022,0.011670,2.590290,-1.657103,-53.764782,,,,,,,
1508436981.273332,0.003709,0.117550,-0.729459,-0.503695,-0.290212,-0.284719,0.003683,-0.117279,-0.993092,0.051386,-0.026611,-0.006481,2.590290,-1.657103,-53.764782,,,,,,,
1508436981.293327,-0.001631,0.107074,-0.734863,-0.479959,-0.337122,-0.266996,-0.001622,-0.106869,-0.994272,0.062688,0.028271,-0.059363,2.144180,-0.889613,-53.802586,,,,,,,
1508436981.313344,-0.006369,0.098612,-0.740103,-0.387089,-0.228550,-0.237717,-0.006338,-0.098452,-0.995122,0.041235,-0.004132,-0.052638,1.688380,-0.097821,-53.826080,,,,,,,
1508436981.333329,-0.009575,0.091702,-0.744132,-0.325053,-0.158370,-0.182267,-0.009534,-0.091573,-0.995753,0.050779,-0.021235,-0.028234,1.688380,-0.097821,-53.826080,,,,,,,
1508436981.353355,-0.010925,0.086276,-0.748124,-0.285589,-0.134904,-0.200764,-0.010885,-0.086169,-0.996221,0.018514,-0.009519,-0.005503,1.391039,0.472917,-53.832596,,,,,,,
1508436981.373359,-0.012595,0.081191,-0.752215,-0.239680,-0.092320,-0.193952,-0.012553,-0.081102,-0.996627,0.012431,-0.016036,0.013472,1.253133,0.903540,-53.830479,,,,,,,
1508436981.393357,-0.014538,0.077226,-0.756734,-0.178763,-0.134820,-0.256293,-0.014494,-0.077149,-0.996914,0.012098,-0.010268,0.016232,1.199233,1.031253,-53.829414,,,,,,,
1508436981.413348,-0.016857,0.077477,-0.762120,-0.189551,-0.080442,-0.252856,-0.016806,-0.077399,-0.996859,-0.009149,-0.058785,0.031572,1.002514,1.344201,-53.826530,,,,,,,
1508436981.433373,-0.017707,0.073734,-0.766896,-0.182089,-0.057034,-0.240405,-0.017658,-0.073667,-0.997127,-0.004650,-0.020846,0.036494,0.890863,1.347729,-53.828403,,,,,,,
1508436981.453358,-0.019015,0.070567,-0.772192,-0.148916,-0.094258,-0.274012,-0.018967,-0.070509,-0.997331,-0.004364,-0.018786,0.042848,0.854447,1.446473,-53.826435,,,,,,,
1508436981.473367,-0.021920,0.069369,-0.777762,-0.183074,-0.129390,-0.282007,-0.021865,-0.069314,-0.997355,-0.019242,-0.029319,0.036174,0.695899,1.707761,-53.821064,,,,,,,
1508436981.493387,-0.024574,0.065055,-0.784137,-0.238844,-0.137804,-0.328760,-0.024520,-0.065009,-0.997583,-0.040879,-0.016625,0.059717,0.452055,1.830326,-53.819633,,,,,,,
1508436981.513383,-0.025501,0.060799,-0.790885,-0.201712,-0.033414,-0.332435,-0.025451,-0.060762,-0.997828,-0.063981,-0.003951,0.060541,0.380218,1.959734,-53.815628,,,,,,,
1508436981.533396,-0.026194,0.057985,-0.797812,-0.162276,0.000697,-0.350019,-0.026147,-0.057953,-0.997977,-0.014549,-0.004502,0.076193,0.304724,2.279637,-53.803509,,,,,,,
1508436981.553402,-0.026149,0.054004,-0.804260,-0.240083,-0.028183,-0.281299,-0.026108,-0.053977,-0.998201,0.022446,-0.043694,0.055421,0.230089,2.458528,-53.796005,,,,,,,
1508436981.573405,-0.028625,0.048260,-0.808990,-0.313196,-0.206178,-0.221082,-0.028587,-0.048241,-0.998427,0.032906,-0.040352,0.036802,0.199865,2.594880,-53.789722,,,,,,,
1508436981.593406,-0.034016,0.042948,-0.813916,-0.306764,-0.220012,-0.230483,-0.033978,-0.042935,-0.998500,-0.016544,-0.012973,0.065700,-0.006260,2.923271,-53.773243,,,,,,,
1508436981.613416,-0.037195,0.036301,-0.817762,-0.368865,-0.124276,-0.155051,-0.037162,-0.036293,-0.998650,0.025840,-0.013268,0.059044,-0.410476,3.397475,-53.743801,,,,,,,
1508436981.633409,-0.038074,0.027267,-0.820702,-0.517763,-0.014621,-0.104281,-0.038050,-0.027263,-0.998904,0.051234,-0.012165,0.053927,-0.410476,3.397475,-53.743801,,,,,,,
1508436981.653403,-0.034344,0.018343,-0.821029,-0.672064,-0.075699,0.101450,-0.034331,-0.018342,-0.999242,0.097549,-0.076537,0.013234,-0.512730,4.136042,-53.691132,,,,,,,
1508436981.673429,-0.037945,0.004009,-0.816568,-0.713649,-0.249755,0.318332,-0.037936,-0.004009,-0.999272,0.080294,-0.018910,-0.007045,-0.416240,5.034870,-53.615147,,,,,,,
1508436981.693437,-0.043041,-0.011191,-0.810468,-0.747835,-0.273172,0.314432,-0.043025,0.011191,-0.999011,0.063747,0.021112,-0.010266,-0.609429,5.616072,-53.555534,,,,,,,
1508436981.713432,-0.047093,-0.026908,-0.807507,-0.809901,-0.171483,0.076285,-0.047059,0.026905,-0.998530,0.074418,0.071972,-0.076391,-0.768814,6.232789,-53.485218,,,,,,,
1508436981.733420,-0.049296,-0.043385,-0.810793,-0.842243,-0.054770,-0.221816,-0.049230,0.043372,-0.997845,0.097356,0.055185,-0.095752,-1.013787,7.526811,-53.314415,,,,,,,
1508436981.753429,-0.050282,-0.060165,-0.816829,-0.844535,-0.037663,-0.252985,-0.050170,0.060129,-0.996929,0.096725,0.005667,-0.096913,-1.013787,7.526811,-53.314415,,,,,,,
1508436981.773429,-0.051649,-0.076685,-0.821984,-0.838935,-0.049514,-0.186706,-0.051474,0.076610,-0.995732,0.107840,-0.012569,-0.057491,-1.186191,9.315475,-53.027561,,,,,,,
1508436981.793457,-0.052420,-0.093060,-0.824117,-0.792199,-0.065920,0.021425,-0.052170,0.092925,-0.994305,0.106201,-0.004897,-0.103915,-1.235703,10.196706,-52.864048,,,,,,,
1508436981.813462,-0.056422,-0.107061,-0.824071,-0.631136,-0.269391,0.007194,-0.056070,0.106856,-0.992692,0.121087,0.034822,-0.135436,-1.282413,10.606407,-52.782257,,,,,,,
1508436981.833457,-0.062310,-0.116471,-0.826815,-0.391080,-0.233927,-0.179037,-0.061848,0.116207,-0.991297,0.009968,0.091327,-0.140630,-1.701073,11.542523,-52.573601,,,,,,,
1508436981.853474,-0.063095,-0.122919,-0.832535,-0.333655,0.122078,-0.295138,-0.062577,0.122610,-0.990480,-0.005965,0.007761,-0.101637,-1.854904,11.906044,-52.487263,,,,,,,
1508436981.873460,-0.059933,-0.130027,-0.839178,-0.394925,0.206264,-0.303777,-0.059392,0.129661,-0.989778,0.044789,-0.017219,-0.089720,-1.813026,12.080780,-52.448784,,,,,,,
1508436981.893455,-0.058292,-0.137301,-0.844786,-0.348223,0.069727,-0.215461,-0.057711,0.136870,-0.988907,0.094301,0.004579,-0.072678,-1.649460,12.672499,-52.314381,,,,,,,
1508436981.913486,-0.058017,-0.141936,-0.847835,-0.183967,0.014064,-0.100683,-0.057402,0.141460,-0.988278,0.046720,0.023259,-0.095050,-1.640901,12.961098,-52.243896,,,,,,,
1508436981.933488,-0.059089,-0.144043,-0.850070,-0.078968,-0.059412,-0.126354,-0.058443,0.143546,-0.987917,0.058031,0.020807,-0.108244,-1.651304,13.046962,-52.222195,,,,,,,
1508436981.953486,-0.060419,-0.145509,-0.853653,-0.101806,-0.004952,-0.190038,-0.059745,0.144996,-0.987627,0.009055,-0.008338,-0.046934,-1.784396,13.177916,-52.184921,,,,,,,
1508436981.973500,-0.059105,-0.147851,-0.857506,-0.135349,0.130324,-0.181312,-0.058426,0.147313,-0.987363,0.026047,0.025035,-0.035815,-1.770832,13.296432,-52.155308,,,,,,,
1508436981.993486,-0.057324,-0.150354,-0.861530,-0.127800,0.102640,-0.188380,-0.056646,0.149788,-0.987094,0.056433,0.031944,-0.036588,-1.726269,13.364668,-52.139359,,,,,,,
1508436982.013511,-0.055374,-0.151484,-0.863933,-0.021511,0.118345,-0.064997,-0.054712,0.150906,-0.987033,0.050332,0.035999,-0.055997,-1.659316,13.492221,-52.108673,,,,,,,
1508436982.033514,-0.048222,-0.151717,-0.863619,0.047352,0.044743,-0.014933,-0.047650,0.151136,-0.987364,0.073117,0.017855,-0.051897,-1.519155,13.514020,-52.107300,,,,,,,
1508436982.053514,-0.049012,-0.150022,-0.863663,0.113014,-0.077791,-0.006807,-0.048442,0.149460,-0.987580,0.044429,0.032471,-0.032775,-1.218336,13.505297,-52.117462,,,,,,,
1508436982.073508,-0.048083,-0.146828,-0.863665,0.101077,-0.047905,-0.031756,-0.047547,0.146301,-0.988097,0.032044,-0.013778,0.013579,-1.277105,13.419554,-52.138199,,,,,,,
1508436982.093514,-0.048476,-0.146169,-0.864025,-0.011324,-0.007444,-0.008800,-0.047940,0.145649,-0.988174,0.041013,-0.045338,0.016052,-1.228886,13.247981,-52.183216,,,,,,,
1508436982.113511,-0.047208,-0.145539,-0.863616,-0.029478,0.026569,0.032306,-0.046692,0.145026,-0.988326,0.014755,-0.018393,-0.004442,5.182239,14.812202,-44.983459,,,,,,,
1508436982.133537,-0.046502,-0.145644,-0.863001,0.007891,0.029800,0.009839,-0.045993,0.145130,-0.988343,0.026172,0.004544,-0.012664,5.253243,14.770063,-44.989082,,,,,,,
1508436982.153517,-0.046421,-0.144835,-0.863286,0.065681,-0.011687,-0.025857,-0.045918,0.144330,-0.988464,0.018605,0.004428,-0.026932,5.285371,14.747433,-44.992741,,,,,,,
1508436982.173539,-0.045888,-0.142743,-0.863629,0.137336,-0.001046,-0.028198,-0.045405,0.142259,-0.988787,0.012675,0.008025,-0.022184,5.285371,14.747433,-44.992741,,,,,,,
1508436982.193534,-0.045098,-0.139963,-0.864117,0.117858,0.072460,-0.028183,-0.044642,0.139506,-0.989214,0.004801,-0.023097,0.011569,5.300639,14.610443,-45.035618,,,,,,,
1508436982.213556,-0.043575,-0.138831,-0.864702,0.013998,0.079969,-0.041010,-0.043142,0.138385,-0.989438,0.026113,-0.020954,0.012800,5.378566,14.477009,-45.069458,,,,,,,
1508436982.233537,-0.040882,-0.139106,-0.865617,-0.035173,0.044866,-0.057525,-0.040476,0.138658,-0.989513,0.025156,-0.005357,0.007610,5.406876,14.478930,-45.065453,,,,,,,
1508436982.253556,-0.040146,-0.138707,-0.866230,0.059169,0.034101,-0.012655,-0.039749,0.138262,-0.989598,0.022599,0.027372,-0.000255,5.528905,14.493500,-45.045959,,,,,,,
1508436982.273571,-0.039694,-0.136598,-0.865962,0.117128,0.005269,0.015444,-0.039314,0.136174,-0.989905,0.024666,0.000713,-0.005030,5.554685,14.410929,-45.069275,,,,,,,
1508436982.293565,-0.038626,-0.134262,-0.865724,0.065720,-0.003193,-0.006787,-0.038269,0.133859,-0.990261,0.017685,-0.007699,-0.000278,5.557230,14.359083,-45.085506,,,,,,,
1508436982.313578,-0.035912,-0.133426,-0.865286,0.019717,0.014897,0.012178,-0.035585,0.133030,-0.990473,0.024065,-0.001454,0.007441,5.661772,14.244014,-45.108990,,,,,,,
1508436982.333574,-0.034654,-0.133897,-0.864811,0.044362,0.008492,0.017583,-0.034337,0.133497,-0.990454,0.017476,0.017901,0.004340,5.742726,14.219546,-45.106476,,,,,,,
1508436982.353585,-0.034108,-0.133119,-0.864285,0.089405,-0.021353,0.022247,-0.033799,0.132726,-0.990576,0.012803,0.015604,0.005637,5.793890,14.239917,-45.093506,,,,,,,
1508436982.373587,-0.033496,-0.130179,-0.863530,0.038128,-0.046905,0.023723,-0.033206,0.129811,-0.990983,0.011417,-0.016652,0.020463,5.837432,14.120260,-45.125504,,,,,,,
1508436982.393600,-0.033918,-0.130418,-0.863263,-0.005821,-0.045782,0.001347,-0.033624,0.130049,-0.990937,0.010720,0.005221,0.006135,5.822903,14.072912,-45.142170,,,,,,,
1508436982.413590,-0.034076,-0.130700,-0.863125,0.034821,-0.015925,0.007231,-0.033779,0.130328,-0.990895,0.007305,0.013013,-0.001048,5.827807,14.087200,-45.137081,,,,,,,
1508436982.433584,-0.033192,-0.130645,-0.862900,0.099986,0.011771,0.000382,-0.032903,0.130274,-0.990932,0.006185,0.013724,-0.000416,5.828543,14.086403,-45.137238,,,,,,,
1508436982.453612,-0.032295,-0.128180,-0.862414,0.111812,0.024495,0.028979,-0.032025,0.127829,-0.991279,0.010296,-0.006216,0.006172,5.887135,14.018460,-45.150780,,,,,,,
1508436982.473608,-0.030801,-0.125820,-0.861996,0.046480,0.012856,-0.000659,-0.030553,0.125488,-0.991625,0.014546,-0.015014,0.011034,5.950610,13.923256,-45.171917,,,,,,,
1508436982.493613,-0.029797,-0.124659,-0.861758,-0.025112,-0.008450,0.010367,-0.029561,0.124336,-0.991800,0.010610,-0.012337,0.013299,6.015058,13.830415,-45.191895,,,,,,,
1508436982.513628,-0.029780,-0.125976,-0.861521,-0.006992,0.020297,0.015268,-0.029540,0.125643,-0.991636,-0.005769,0.018797,0.005369,6.038853,13.841814,-45.185230,,,,,,,
1508436982.533633,-0.029232,-0.126501,-0.861310,0.068870,0.047989,0.007344,-0.028994,0.126164,-0.991586,-0.004605,0.016658,-0.002860,6.045737,13.900493,-45.166290,,,,,,,
1508436982.553611,-0.028267,-0.124697,-0.861118,0.081781,0.021361,0.004522,-0.028043,0.124374,-0.991839,0.007246,-0.008453,-0.000089,6.072088,13.878426,-45.169544,,,,,,,
1508436982.573628,-0.027999,-0.123200,-0.861025,0.042219,0.012847,0.005741,-0.027783,0.122889,-0.992031,-0.001331,-0.011423,0.002621,6.117378,13.772609,-45.195816,,,,,,,
1508436982.593644,-0.027518,-0.122616,-0.861032,0.015350,0.039508,-0.006354,-0.027308,0.122309,-0.992116,-0.002554,-0.003764,0.008153,6.117378,13.772609,-45.195816,,,,,,,
1508436982.613636,-0.026305,-0.122788,-0.861212,0.033448,0.064016,-0.012055,-0.026104,0.122479,-0.992128,0.002834,0.014423,0.006883,6.151491,13.716761,-45.208168,,,,,,,
1508436982.633655,-0.024842,-0.121422,-0.861400,0.054977,0.030972,-0.003062,-0.024656,0.121124,-0.992331,0.017256,-0.010238,-0.006372,6.225263,13.697556,-45.203892,,,,,,,
1508436982.653642,-0.024155,-0.119909,-0.860668,0.053077,0.003181,0.045327,-0.023979,0.119622,-0.992530,0.012337,-0.012841,-0.006539,6.263092,13.656237,-45.211166,,,,,,,
1508436982.673637,-0.023885,-0.119255,-0.860126,0.037982,0.006444,0.013302,-0.023713,0.118973,-0.992614,0.003388,0.005051,-0.000962,6.303101,13.564559,-45.233200,,,,,,,
1508436982.693670,-0.023522,-0.118580,-0.859900,0.040164,-0.019100,0.003007,-0.023355,0.118302,-0.992703,0.015833,0.005492,-0.003223,6.310043,13.532658,-45.241787,,,,,,,
1508436982.713661,-0.023312,-0.117726,-0.859512,0.055192,-0.011687,0.024215,-0.023148,0.117454,-0.992808,0.021027,0.003258,-0.001576,6.322805,13.520562,-45.243618,,,,,,,
1508436982.733655,-0.022880,-0.116631,-0.858890,0.066914,0.004290,0.023974,-0.022722,0.116367,-0.992946,0.007662,-0.002658,0.002849,6.351936,13.454188,-45.259323,,,,,,,
1508436982.753684,-0.022752,-0.114996,-0.858317,0.063694,0.017056,0.032322,-0.022600,0.114743,-0.993138,-0.005430,-0.010632,0.005833,6.376632,13.385851,-45.276112,,,,,,,
1508436982.773689,-0.022384,-0.113848,-0.857826,0.035847,0.008573,0.016471,-0.022237,0.113602,-0.993277,0.001500,-0.007431,0.007834,6.380326,13.342157,-45.288486,,,,,,,
1508436982.793672,-0.021924,-0.113151,-0.857351,0.039095,0.007487,0.027148,-0.021782,0.112910,-0.993366,0.000420,0.003224,0.001515,6.415546,13.271743,-45.304195,,,,,,,
1508436982.813698,-0.021946,-0.111894,-0.856930,0.093602,0.009639,0.008948,-0.021807,0.111660,-0.993507,-0.010145,0.007755,-0.005181,6.432370,13.218793,-45.317287,,,,,,,
1508436982.833696,-0.021946,-0.109758,-0.857271,0.109502,0.019296,-0.028524,-0.021812,0.109537,-0.993743,-0.008492,0.004049,-0.001084,6.423328,13.183054,-45.328983,,,,,,,
1508436982.853690,-0.021382,-0.107260,-0.858095,0.037691,0.036402,-0.050044,-0.021257,0.107054,-0.994026,0.005434,-0.022429,0.010963,6.420031,13.090721,-45.356201,,,,,,,
1508436982.873712,-0.020801,-0.107934,-0.858825,-0.098252,0.074742,-0.029172,-0.020679,0.107725,-0.993966,-0.021954,-0.000044,0.053963,6.442163,13.018059,-45.373974,,,,,,,
1508436982.893719,-0.019747,-0.109118,-0.859657,-0.032821,-0.001928,-0.050501,-0.019629,0.108902,-0.993859,-0.016474,0.023850,-0.004615,6.490724,13.072844,-45.351295,,,,,,,
1508436982.913720,-0.019748,-0.109863,-0.859616,0.006039,-0.028727,0.029830,-0.019628,0.109642,-0.993777,0.015309,-0.010017,0.000323,6.486308,13.102996,-45.343227,,,,,,,
1508436982.933727,-0.020881,-0.109812,-0.859268,-0.005776,-0.053153,-0.006061,-0.020754,0.109592,-0.993760,0.006120,0.012753,-0.006499,6.462990,13.127947,-45.339336,,,,,,,
1508436982.953721,-0.021470,-0.110103,-0.859798,-0.007130,0.019325,-0.027371,-0.021339,0.109881,-0.993716,-0.012231,-0.010928,-0.014234,6.420043,13.141498,-45.341511,,,,,,,
1508436982.973716,-0.020673,-0.110463,-0.860224,-0.025314,0.031022,-0.014731,-0.020545,0.110238,-0.993693,0.029044,-0.020944,-0.025869,6.427312,13.149468,-45.338173,,,,,,,
1508436982.993733,-0.020222,-0.110545,-0.860164,0.005872,0.010717,0.014330,-0.020097,0.110320,-0.993693,0.007539,-0.002425,-0.020437,6.458565,13.177666,-45.325546,,,,,,,
1508436983.013719,-0.019823,-0.109809,-0.860095,0.049599,0.025682,-0.016842,-0.019703,0.109588,-0.993782,0.002247,0.006134,-0.018517,6.458565,13.177666,-45.325546,,,,,,,
1508436983.033744,-0.019213,-0.108814,-0.860534,0.047454,0.035255,-0.009516,-0.019099,0.108599,-0.993902,0.011332,-0.017428,-0.003382,6.496957,13.124827,-45.335384,,,,,,,
1508436983.053755,-0.018253,-0.107659,-0.860193,0.056150,0.021348,0.019470,-0.018146,0.107451,-0.994045,0.011661,-0.001311,-0.000493,6.537347,13.055014,-45.349735,,,,,,,
1508436983.073740,-0.017961,-0.106700,-0.859964,0.040087,0.014980,0.009978,-0.017857,0.106498,-0.994153,0.009206,-0.005408,0.006070,6.566006,13.025934,-45.353958,,,,,,,
1508436983.093742,-0.017289,-0.106081,-0.859656,0.010070,0.038415,0.013925,-0.017191,0.105882,-0.994230,0.000071,-0.003129,0.012052,6.599679,12.969158,-45.365334,,,,,,,
1508436983.113768,-0.016622,-0.106037,-0.859567,0.036732,0.048031,-0.004361,-0.016528,0.105838,-0.994246,-0.005887,0.011273,0.009810,6.638576,12.950819,-45.364899,,,,,,,
1508436983.133770,-0.016103,-0.105045,-0.859633,0.065721,0.022444,0.002386,-0.016014,0.104851,-0.994359,-0.006707,0.006629,0.009633,6.650975,12.950167,-45.363270,,,,,,,
1508436983.153752,-0.015632,-0.103529,-0.859551,0.017592,0.011811,-0.000623,-0.015548,0.103344,-0.994524,0.001174,-0.013958,0.025789,6.681057,12.867874,-45.382263,,,,,,,
1508436983.173783,-0.015087,-0.103725,-0.859396,-0.031640,0.028841,0.011963,-0.015005,0.103540,-0.994512,-0.000055,-0.005700,0.016454,6.703860,12.853834,-45.382881,,,,,,,
1508436983.193767,-0.014907,-0.104357,-0.859385,-0.010150,-0.018003,-0.003368,-0.014825,0.104168,-0.994449,0.005212,0.002155,0.008762,6.716208,12.862976,-45.378468,,,,,,,
1508436983.213767,-0.015913,-0.104708,-0.859364,0.040104,0.007523,0.009019,-0.015826,0.104516,-0.994397,-0.016248,0.012702,0.004407,6.694612,12.890450,-45.373859,,,,,,,
1508436983.233797,-0.014983,-0.104164,-0.859338,0.031347,0.053368,-0.009767,-0.014902,0.103976,-0.994468,0.002420,0.007901,0.008674,6.700954,12.869256,-45.378941,,,,,,,
1508436983.253801,-0.013663,-0.104058,-0.859606,0.003598,0.025686,-0.012543,-0.013588,0.103870,-0.994498,0.009133,0.001110,0.008612,6.749763,12.870298,-45.371407,,,,,,,
1508436983.273777,-0.013088,-0.104072,-0.859453,-0.015532,0.010725,0.014346,-0.013017,0.103884,-0.994504,0.004258,-0.006732,0.008771,6.792258,12.875677,-45.363541,,,,,,,
1508436983.293793,-0.012998,-0.104717,-0.859167,-0.039022,-0.007376,0.013560,-0.012926,0.104526,-0.994438,0.001589,0.002575,0.008995,6.806616,12.885223,-45.358677,,,,,,,
1508436983.313798,-0.012886,-0.105533,-0.858930,-0.010225,0.021383,0.010988,-0.012814,0.105338,-0.994354,-0.004611,0.010217,0.009231,6.806616,12.885223,-45.358677,,,,,,,
1508436983.333795,-0.012254,-0.105703,-0.859014,0.015421,0.008639,-0.011238,-0.012186,0.105506,-0.994344,0.009042,-0.002234,0.001760,6.820526,12.932915,-45.343014,,,,,,,
1508436983.353827,-0.012591,-0.105052,-0.858599,-0.014167,-0.057506,0.043058,-0.012521,0.104859,-0.994408,0.008478,-0.026047,-0.001121,6.830636,12.940138,-45.339428,,,,,,,
1508436983.373811,-0.013721,-0.105427,-0.857683,-0.045279,-0.038309,0.035339,-0.013644,0.105232,-0.994354,0.000415,-0.012810,0.003555,6.830636,12.940138,-45.339428,,,,,,,
1508436983.393766,-0.014432,-0.106671,-0.857556,-0.033883,0.048041,-0.001110,-0.014349,0.106469,-0.994212,-0.017099,0.011039,0.000301,6.786351,12.929367,-45.349152,,,,,,,
1508436983.413774,-0.013450,-0.107003,-0.857961,0.000423,0.017250,-0.027406,-0.013373,0.106799,-0.994191,0.010580,0.004330,-0.009990,6.781592,12.988232,-45.333038,,,,,,,
1508436983.433754,-0.013590,-0.106696,-0.858232,0.009223,-0.037127,-0.003166,-0.013513,0.106493,-0.994222,0.009576,-0.005602,-0.007823,6.796799,12.992815,-45.329449,,,,,,,
1508436983.453783,-0.014065,-0.106424,-0.858119,-0.014373,-0.012630,0.001828,-0.013985,0.106223,-0.994244,-0.002754,-0.006919,0.006817,6.774549,12.972019,-45.338737,,,,,,,
1508436983.473787,-0.013652,-0.106897,-0.858427,-0.028514,0.038553,-0.022362,-0.013574,0.106693,-0.994199,0.001092,-0.001713,0.008878,6.775641,12.985020,-45.334850,,,,,,,
1508436983.493788,-0.012586,-0.107281,-0.858819,-0.018890,0.050252,-0.014008,-0.012513,0.107075,-0.994172,0.004121,-0.002415,0.002992,6.792995,12.998270,-45.328457,,,,,,,
1508436983.513794,-0.011446,-0.107292,-0.859018,-0.001734,0.038530,-0.013851,-0.011380,0.107086,-0.994185,0.002881,-0.001679,0.002745,6.868060,13.014537,-45.312473,,,,,,,
1508436983.533801,-0.010825,-0.107142,-0.859475,0.011162,0.007659,-0.025142,-0.010762,0.106937,-0.994208,0.008611,-0.001331,-0.001062,6.893070,13.013901,-45.308861,,,,,,,
1508436983.553806,-0.010634,-0.106844,-0.859826,-0.004834,0.005503,-0.010171,-0.010573,0.106641,-0.994241,0.007826,-0.006589,0.004434,6.902364,13.007784,-45.309200,,,,,,,
1508436983.573809,-0.009609,-0.106977,-0.859710,-0.035905,0.037436,0.006450,-0.009554,0.106773,-0.994238,0.009981,-0.004127,0.009039,6.935691,13.000426,-45.306225,,,,,,,
1508436983.593795,-0.008634,-0.107693,-0.859774,-0.033771,0.026807,-0.005126,-0.008584,0.107485,-0.994170,0.009423,-0.002627,0.000105,6.983170,13.032740,-45.289642,,,,,,,
1508436983.613807,-0.008301,-0.107758,-0.859562,-0.017523,-0.021164,0.011552,-0.008252,0.107550,-0.994165,0.005933,-0.009466,-0.002890,7.016960,13.043027,-45.281456,,,,,,,
1508436983.633824,-0.008852,-0.107894,-0.859370,-0.015436,-0.003056,0.011288,-0.008800,0.107684,-0.994146,-0.005925,0.000455,0.001501,7.001509,13.039442,-45.284882,,,,,,,
1508436983.653829,-0.008519,-0.108257,-0.859560,0.005764,0.030024,-0.020131,-0.008469,0.108045,-0.994110,0.003205,0.004137,0.005203,6.998606,13.056622,-45.280380,,,,,,,
1508436983.673836,-0.007277,-0.107759,-0.859714,-0.001643,0.024661,0.000213,-0.007235,0.107551,-0.994173,0.013873,-0.013404,0.008471,7.034253,13.054176,-45.275562,,,,,,,
1508436983.693836,-0.006803,-0.107388,-0.859276,-0.034575,-0.025450,0.027622,-0.006764,0.107182,-0.994216,0.008702,-0.017842,0.007354,7.066426,13.041640,-45.274162,,,,,,,
1508436983.713846,-0.007849,-0.107888,-0.858704,-0.025970,-0.041430,0.026781,-0.007803,0.107679,-0.994155,-0.010675,0.002169,-0.008592,7.064620,13.031763,-45.277290,,,,,,,
1508436983.733837,-0.008842,-0.107988,-0.858487,0.026346,-0.021170,0.009387,-0.008791,0.107778,-0.994136,-0.005751,0.006663,-0.017903,7.017571,13.047017,-45.280212,,,,,,,
1508436983.753826,-0.008918,-0.107002,-0.858241,0.024206,-0.014788,0.014628,-0.008867,0.106798,-0.994241,0.003999,-0.010515,-0.013861,6.998656,13.013170,-45.292877,,,,,,,
1508436983.773858,-0.008837,-0.106584,-0.858029,-0.007993,0.009736,0.006832,-0.008787,0.106382,-0.994287,-0.000704,-0.006055,0.002145,7.003837,12.978649,-45.301983,,,,,,,
1508436983.793865,-0.008445,-0.106656,-0.857888,-0.041147,0.003356,0.005883,-0.008397,0.106453,-0.994282,0.005513,-0.011925,-0.001461,7.015806,12.971143,-45.302280,,,,,,,
1508436983.813860,-0.008354,-0.107253,-0.857653,-0.025030,-0.009448,0.014587,-0.008306,0.107048,-0.994219,0.002554,0.002999,-0.002378,7.025422,12.985394,-45.296707,,,,,,,
1508436983.833873,-0.008270,-0.107599,-0.857160,0.017854,-0.025457,0.025450,-0.008222,0.107391,-0.994183,0.011304,0.011276,-0.003757,7.031485,13.008526,-45.289131,,,,,,,
1508436983.853863,-0.008872,-0.107161,-0.856721,0.017875,-0.037166,0.021355,-0.008821,0.106956,-0.994225,0.001345,-0.005958,-0.000328,7.028785,13.005980,-45.290279,,,,,,,
1508436983.873857,-0.009551,-0.106777,-0.856239,0.011347,0.000116,0.021885,-0.009496,0.106574,-0.994259,-0.011714,-0.000800,-0.001544,7.009251,12.985882,-45.299072,,,,,,,
1508436983.893885,-0.009792,-0.106638,-0.856079,-0.000416,-0.023279,0.003040,-0.009736,0.106436,-0.994272,0.000535,0.001444,-0.028738,6.982678,12.963938,-45.309460,,,,,,,
1508436983.913891,-0.010746,-0.107479,-0.856121,-0.093435,-0.056264,-0.003876,-0.010683,0.107272,-0.994172,0.004885,0.001386,-0.073699,6.969055,12.964481,-45.311401,,,,,,,
1508436983.933886,-0.011026,-0.110413,-0.856539,-0.139808,0.025844,-0.040220,-0.010959,0.110188,-0.993850,0.016345,0.048869,-0.330277,6.915945,13.103447,-45.279556,,,,,,,
1508436983.953900,-0.010847,-0.110207,-0.857566,0.130035,-0.036011,-0.038459,-0.010781,0.109984,-0.993875,0.006920,0.034974,-0.585913,6.929649,13.162878,-45.260216,,,,,,,
1508436983.973888,-0.012757,-0.102874,-0.857498,0.497420,-0.097992,0.014413,-0.012689,0.102692,-0.994632,-0.002646,0.026519,-0.670193,6.899539,13.082973,-45.287975,,,,,,,
1508436983.993903,-0.012431,-0.088835,-0.856745,0.819047,0.082972,0.037138,-0.012381,0.088719,-0.995980,-0.103646,-0.048725,-0.843315,6.829348,12.347742,-45.504528,,,,,,,
1508436984.013915,-0.009971,-0.067819,-0.856523,1.211355,0.129908,-0.044875,-0.009948,0.067767,-0.997652,-0.102799,-0.020846,-0.864836,6.934696,11.475852,-45.716339,,,,,,,
1508436984.033916,-0.007238,-0.039091,-0.859232,1.559644,0.158868,-0.188441,-0.007232,0.039081,-0.999210,-0.098999,0.005856,-0.832150,6.934696,11.475852,-45.716339,,,,,,,
1508436984.053923,-0.002727,-0.004714,-0.861218,1.776005,0.262889,-0.029101,-0.002727,0.004714,-0.999985,-0.099034,-0.086441,-0.735046,7.194010,8.740499,-46.277626,,,,,,,
1508436984.073929,0.002363,0.031463,-0.860215,1.806369,0.240304,0.074635,0.002362,-0.031458,-0.999502,-0.065762,-0.054327,-0.643686,7.439730,7.065179,-46.524216,,,,,,,
1508436984.093914,0.006092,0.069106,-0.858396,1.982184,0.170946,0.111764,0.006077,-0.069051,-0.997595,-0.076664,0.066579,-0.579416,7.602451,5.786382,-46.674290,,,,,,,
1508436984.113937,0.009123,0.114098,-0.857344,2.431437,0.123091,0.015087,0.009064,-0.113850,-0.993457,-0.069885,0.202382,-0.502591,7.733940,4.380961,-46.805580,,,,,,,
1508436984.133926,0.010106,0.167578,-0.858880,2.750587,-0.047284,-0.056256,0.009964,-0.166795,-0.985941,-0.013138,0.178849,-0.323400,7.885481,0.892097,-46.976505,,,,,,,
1508436984.153942,0.008931,0.222400,-0.859369,2.729426,-0.000641,0.060376,0.008711,-0.220571,-0.975332,-0.000868,0.181692,-0.218226,7.885481,0.892097,-46.976505,,,,,,,
1508436984.173932,0.010520,0.277722,-0.856730,2.804244,0.151445,0.172209,0.010117,-0.274166,-0.961629,-0.002075,0.298229,0.049535,7.826375,-2.973957,-46.900661,,,,,,,
1508436984.193957,0.010924,0.334343,-0.855677,2.849276,-0.058091,0.008871,0.010319,-0.328148,-0.944570,0.080638,0.341973,0.108724,7.945574,-6.928310,-46.461113,,,,,,,
1508436984.213940,0.010183,0.393574,-0.857160,3.054559,-0.037836,-0.024632,0.009405,-0.383492,-0.923496,0.049220,0.395302,0.165485,7.945574,-6.928310,-46.461113,,,,,,,
1508436984.233965,0.009723,0.456662,-0.856528,3.169454,-0.021097,0.113658,0.008727,-0.440954,-0.897487,0.076799,0.376226,0.338024,7.868914,-12.473465,-45.301895,,,,,,,
1508436984.253971,0.005441,0.517036,-0.853639,2.932576,-0.216036,0.144386,0.004730,-0.494305,-0.869275,0.134491,0.362714,0.366971,7.741317,-15.258628,-44.463634,,,,,,,
1508436984.273968,0.000450,0.574440,-0.851009,2.828530,-0.149932,0.127511,0.000378,-0.543365,-0.839497,0.084324,0.421920,0.402363,7.624692,-16.560709,-44.015629,,,,,,,
1508436984.293982,-0.003513,0.628816,-0.847957,2.606799,-0.098697,0.103476,-0.002841,-0.588188,-0.808720,0.074221,0.337654,0.397129,7.370159,-20.233389,-42.497757,,,,,,,
1508436984.313985,-0.005987,0.677942,-0.845701,2.403047,0.009017,0.065812,-0.004663,-0.627191,-0.778851,0.022928,0.340143,0.388211,7.264215,-22.351475,-41.441666,,,,,,,
1508436984.333965,-0.003770,0.724352,-0.844224,2.249216,0.236038,0.022116,-0.002824,-0.662650,-0.748924,-0.005401,0.390937,0.382972,7.266384,-23.340458,-40.892437,,,,,,,
1508436984.353991,0.002206,0.767160,-0.844215,2.070228,0.313881,0.004061,0.001588,-0.694093,-0.719883,0.064574,0.289446,0.377644,7.541941,-26.027336,-39.185017,,,,,,,
1508436984.374000,0.006108,0.805682,-0.842926,1.843961,0.206183,0.086831,0.004230,-0.721303,-0.692607,0.065426,0.233022,0.383738,7.731181,-27.564341,-38.081558,,,,,,,
1508436984.393993,0.004344,0.839460,-0.838307,1.594610,-0.028321,0.194916,0.002901,-0.744282,-0.667859,0.053587,0.217244,0.351453,7.774650,-28.258615,-37.560272,,,,,,,
1508436984.413988,0.000860,0.868701,-0.835660,1.376874,-0.042745,0.004359,0.000555,-0.763491,-0.645818,-0.022620,0.229983,0.359274,7.624219,-30.033699,-36.188629,,,,,,,
1508436984.434013,0.005096,0.893249,-0.838615,1.154258,0.196174,-0.121563,0.003195,-0.779113,-0.626876,-0.029196,0.172347,0.319243,7.687489,-30.943443,-35.400204,,,,,,,
1508436984.454021,0.013459,0.914115,-0.841528,0.945507,0.320687,-0.035776,0.008216,-0.792022,-0.610437,0.001321,0.110870,0.271417,7.874117,-31.520195,-34.846008,,,,,,,
1508436984.474021,0.017683,0.929164,-0.840436,0.647736,0.196942,0.090999,0.010583,-0.801120,-0.598411,0.032294,0.048800,0.234565,2.303388,-34.450706,-37.974739,,,,,,,
1508436984.494028,0.015998,0.939133,-0.837144,0.426808,-0.012826,0.077146,0.009446,-0.807047,-0.590412,0.001021,0.102320,0.188282,2.303305,-34.872902,-37.587410,,,,,,,
1508436984.514033,0.016678,0.946339,-0.837722,0.325725,0.017278,-0.049038,0.009750,-0.811281,-0.584576,-0.047684,0.099183,0.144604,2.282589,-35.098480,-37.378120,,,,,,,
1508436984.534037,0.021406,0.952290,-0.841437,0.284397,0.154862,-0.128842,0.012411,-0.814745,-0.579686,-0.044713,0.055239,0.136205,2.387449,-35.389545,-37.096062,,,,,,,
1508436984.554030,0.029046,0.956661,-0.845579,0.178359,0.227256,-0.094625,0.016735,-0.817272,-0.576009,-0.023449,0.024197,0.101079,2.618754,-35.566971,-36.910305,,,,,,,
1508436984.574047,0.034648,0.958324,-0.847926,0.028962,0.140914,-0.046343,0.019915,-0.818229,-0.574547,0.017225,-0.003624,0.062508,2.782175,-35.642227,-36.825661,,,,,,,
1508436984.594051,0.036891,0.960098,-0.848786,-0.033750,0.039662,-0.010706,0.021150,-0.819248,-0.573050,-0.021470,0.034366,0.018927,2.885008,-35.658813,-36.801674,,,,,,,
1508436984.614056,0.040128,0.959846,-0.851422,0.026716,0.089946,-0.127708,0.023013,-0.819103,-0.573184,-0.030536,0.075741,0.019077,2.985919,-35.707817,-36.746075,,,,,,,
1508436984.634037,0.045986,0.960817,-0.855855,0.119567,0.148551,-0.148886,0.026334,-0.819660,-0.572245,-0.004758,0.023715,0.022456,3.088113,-35.706535,-36.738876,,,,,,,
1508436984.654064,0.051499,0.963638,-0.859591,0.145703,0.084466,-0.066938,0.029369,-0.821272,-0.569780,0.010899,-0.001924,0.027711,3.247035,-35.765423,-36.667816,,,,,,,
1508436984.674070,0.054537,0.965708,-0.862576,-0.003720,-0.026311,-0.050291,0.031007,-0.822452,-0.567989,0.013960,-0.020780,0.010357,3.431459,-35.918137,-36.501373,,,,,,,
1508436984.694075,0.056134,0.964308,-0.864568,-0.093790,0.022737,-0.062665,0.031979,-0.821655,-0.569087,-0.022503,0.009292,0.000224,3.450761,-35.898136,-36.519226,,,,,,,
1508436984.714081,0.059729,0.962368,-0.866533,-0.027017,0.185795,-0.110930,0.034119,-0.820547,-0.570559,-0.008012,0.041052,0.020953,3.540349,-35.797756,-36.609077,,,,,,,
1508436984.734084,0.067083,0.963027,-0.870374,0.076863,0.178274,-0.091705,0.038278,-0.820924,-0.569754,0.024634,0.016343,-0.005137,3.775827,-35.799679,-36.583656,,,,,,,
1508436984.754070,0.073912,0.964707,-0.875555,0.098881,0.015211,-0.049906,0.042066,-0.821882,-0.568103,0.039065,0.002927,-0.003553,3.864673,-35.827858,-36.546776,,,,,,,
1508436984.774082,0.073510,0.965903,-0.876298,0.038296,-0.065836,0.002497,0.041765,-0.822563,-0.567138,-0.001833,-0.027321,0.016128,4.007764,-35.906006,-36.454556,,,,,,,
1508436984.794098,0.073088,0.966014,-0.876441,-0.002670,0.007728,-0.024130,0.041520,-0.822626,-0.567065,-0.012681,0.017663,0.010638,3.972541,-35.917938,-36.446651,,,,,,,
1508436984.814095,0.077803,0.965817,-0.879797,0.004397,0.102623,-0.068165,0.044205,-0.822514,-0.567025,0.016067,0.005863,0.004738,4.018797,-35.909920,-36.449482,,,,,,,
1508436984.834087,0.082771,0.965865,-0.882930,0.013308,0.052434,-0.005600,0.047019,-0.822541,-0.566759,0.032174,-0.021652,-0.016371,4.191098,-35.911034,-36.428974,,,,,,,
1508436984.854112,0.082445,0.965767,-0.882089,-0.018538,0.006563,0.031343,0.046841,-0.822486,-0.566854,0.023136,-0.001184,-0.005061,4.270069,-35.906551,-36.424225,,,,,,,
1508436984.874118,0.081982,0.964789,-0.881222,-0.026104,0.019370,0.020500,0.046644,-0.821929,-0.567678,0.003664,0.001173,-0.013911,4.256376,-35.897057,-36.435181,,,,,,,
1508436984.894121,0.082502,0.964514,-0.881013,0.005881,0.036447,-0.000031,0.046958,-0.821772,-0.567878,-0.000373,-0.004995,-0.035210,4.275082,-35.857571,-36.471851,,,,,,,
1508436984.914127,0.083411,0.964918,-0.881095,0.069071,0.036395,0.018049,0.047446,-0.822002,-0.567504,0.006753,-0.006596,-0.020051,2.992542,-39.897213,-37.632736,,,,,,,
1508436984.934124,0.083985,0.966568,-0.880641,0.080791,0.054500,0.018844,0.047658,-0.822941,-0.566125,-0.002461,-0.014508,0.009378,3.016707,-39.920490,-37.606110,,,,,,,
1508436984.954136,0.084356,0.968757,-0.880000,0.024083,0.043880,0.009444,0.047716,-0.824182,-0.564311,-0.006044,-0.012121,0.020732,3.035953,-39.966892,-37.555241,,,,,,,
1508436984.974135,0.085790,0.968060,-0.880480,-0.052083,0.067409,-0.028161,0.048574,-0.823788,-0.564814,-0.004583,-0.003788,0.013559,3.075033,-40.018242,-37.497334,,,,,,,
1508436984.994146,0.088501,0.967026,-0.880995,-0.063980,0.138732,-0.002529,0.050181,-0.823201,-0.565528,-0.000331,0.012974,0.015464,3.138750,-39.985470,-37.527008,,,,,,,
1508436985.014150,0.091789,0.965878,-0.880972,-0.048920,0.137618,0.020934,0.052127,-0.822549,-0.566301,0.019941,0.014672,0.005754,3.222485,-39.957195,-37.550018,,,,,,,
1508436985.034156,0.092664,0.965741,-0.880088,0.013448,0.039591,0.025508,0.052633,-0.822470,-0.566367,0.020793,0.019828,0.012138,3.360551,-39.917652,-37.579960,,,,,,,
1508436985.054161,0.092964,0.966388,-0.880212,0.008229,-0.008334,0.021941,0.052753,-0.822839,-0.565821,0.000286,0.001916,0.031138,3.384273,-39.939590,-37.554516,,,,,,,
1508436985.074142,0.092646,0.965514,-0.879206,-0.081796,0.040686,0.023430,0.052640,-0.822341,-0.566554,-0.018048,-0.002610,0.034908,3.367623,-39.943359,-37.552002,,,,,,,
1508436985.094169,0.092634,0.963850,-0.877894,-0.162185,0.068437,0.006028,0.052760,-0.821393,-0.567917,-0.004221,0.017957,0.019165,3.375285,-39.879471,-37.619156,,,,,,,
1508436985.114175,0.093095,0.959371,-0.877357,-0.136528,0.049302,-0.017173,0.053363,-0.818831,-0.571549,-0.004123,0.032728,0.002259,3.405939,-39.761349,-37.741230,,,,,,,
1508436985.134164,0.094335,0.956205,-0.877511,-0.116208,0.058871,-0.010929,0.054315,-0.817009,-0.574061,0.001898,0.001595,-0.004567,3.465489,-39.588593,-37.917011,,,,,,,
1508436985.154183,0.095098,0.954064,-0.876946,-0.111929,0.067376,-0.003591,0.054919,-0.815773,-0.575759,-0.005404,-0.005684,-0.005143,3.521339,-39.499901,-38.004261,,,,,,,
1508436985.174168,0.095734,0.951581,-0.876317,-0.116264,0.071663,-0.016445,0.055479,-0.814334,-0.577739,-0.006819,-0.000317,-0.003804,3.542089,-39.431866,-38.072922,,,,,,,
1508436985.194172,0.097127,0.948704,-0.876516,-0.135598,0.075964,-0.034619,0.056510,-0.812661,-0.579990,-0.002967,-0.008247,-0.007397,3.604279,-39.298420,-38.204834,,,,,,,
1508436985.214198,0.099185,0.945837,-0.876720,-0.148419,0.100411,-0.006174,0.057934,-0.810987,-0.582189,0.000431,-0.014407,-0.009990,3.693256,-39.190186,-38.307373,,,,,,,
1508436985.234203,0.100627,0.943038,-0.876156,-0.124751,0.081188,0.015412,0.059001,-0.809346,-0.584361,0.012227,-0.004023,-0.008199,3.758437,-39.102882,-38.390160,,,,,,,
1508436985.254198,0.101162,0.940950,-0.875350,-0.095756,0.039649,0.009595,0.059485,-0.808118,-0.586009,0.005960,-0.002261,-0.010197,3.814385,-38.991119,-38.498169,,,,,,,
1508436985.274211,0.102044,0.939572,-0.875370,-0.081764,0.026838,0.022565,0.060115,-0.807305,-0.587064,0.006474,-0.005576,0.007291,3.847252,-38.924458,-38.562298,,,,,,,
1508436985.294217,0.101259,0.938465,-0.873866,-0.109455,0.008691,0.045241,0.059745,-0.806652,-0.587999,-0.000007,-0.007191,0.014391,3.859186,-38.898270,-38.587524,,,,,,,
1508436985.314196,0.099837,0.936350,-0.871738,-0.146993,0.032147,0.039598,0.059078,-0.805400,-0.589780,-0.008160,0.005489,0.021756,3.831518,-38.805695,-38.683369,,,,,,,
1508436985.334227,0.099509,0.933968,-0.870234,-0.151381,0.049228,0.021227,0.059075,-0.803986,-0.591707,-0.003930,0.004562,0.027147,3.820355,-38.730415,-38.759842,,,,,,,
1508436985.354229,0.099663,0.931567,-0.869625,-0.150258,0.013046,0.003623,0.059358,-0.802556,-0.593617,0.002577,0.015919,0.047795,3.830808,-38.672203,-38.816898,,,,,,,
1508436985.374224,0.099972,0.929766,-0.869043,-0.160012,0.065229,0.011405,0.059686,-0.801480,-0.595036,-0.019189,0.073514,0.124531,3.859335,-38.568256,-38.917358,,,,,,,
1508436985.394241,0.101657,0.926362,-0.868412,-0.179579,0.141980,-0.013152,0.060965,-0.799440,-0.597645,0.005594,0.145570,0.208423,3.923698,-38.439205,-39.038410,,,,,,,
1508436985.414226,0.105823,0.922045,-0.869023,-0.245141,0.195338,-0.053330,0.063818,-0.796839,-0.600812,0.017954,0.177881,0.257535,3.991354,-38.366543,-39.102982,,,,,,,
1508436985.434221,0.110475,0.915185,-0.869674,-0.404581,0.214604,-0.054618,0.067213,-0.792675,-0.605928,0.030092,0.293072,0.411744,4.282219,-38.043526,-39.386784,,,,,,,
1508436985.454254,0.115468,0.904219,-0.870046,-0.629549,0.246716,-0.103965,0.071235,-0.785942,-0.614183,0.006554,0.371117,0.526399,4.507855,-37.652664,-39.735653,,,,,,,
1508436985.474255,0.124492,0.888250,-0.872738,-0.878637,0.411040,-0.211725,0.078323,-0.775969,-0.625889,-0.011505,0.392989,0.572956,4.657907,-37.383930,-39.971386,,,,,,,
1508436985.494249,0.135737,0.866851,-0.875136,-1.155999,0.484610,-0.211518,0.087583,-0.762295,-0.641277,0.008105,0.473034,0.673152,5.389439,-36.243500,-40.918564,,,,,,,
1508436985.514268,0.146669,0.840065,-0.876243,-1.399116,0.531587,-0.234409,0.097538,-0.744686,-0.660249,-0.031865,0.578900,0.708299,5.953415,-35.176773,-41.762634,,,,,,,
1508436985.534270,0.158346,0.810063,-0.877458,-1.524582,0.546670,-0.303843,0.108716,-0.724331,-0.680827,-0.058011,0.613369,0.743449,6.261627,-34.567684,-42.223606,,,,,,,
1508436985.554277,0.171870,0.776194,-0.879300,-1.764668,0.637352,-0.342299,0.122041,-0.700569,-0.703072,-0.075532,0.607978,0.760704,7.307879,-32.496704,-43.675224,,,,,,,
1508436985.574282,0.182795,0.736281,-0.878433,-2.098212,0.539418,-0.334230,0.134693,-0.671537,-0.728626,-0.083606,0.624387,0.758426,7.871588,-31.238895,-44.487473,,,,,,,
1508436985.594280,0.190430,0.688172,-0.877978,-2.555884,0.254375,-0.497163,0.146202,-0.635126,-0.758446,-0.088951,0.637094,0.745064,8.389039,-29.781954,-45.383091,,,,,,,
1508436985.614291,0.189008,0.628457,-0.877729,-3.176163,-0.280122,-0.544393,0.151987,-0.587897,-0.794529,-0.013605,0.518180,0.692005,9.061290,-25.969841,-47.543938,,,,,,,
1508436985.634297,0.170244,0.556464,-0.868613,-3.881880,-0.975512,-0.026220,0.143862,-0.528187,-0.836853,-0.061525,0.266361,0.575668,8.761675,-22.572626,-49.301880,,,,,,,
1508436985.654301,0.126411,0.467946,-0.842516,-5.004713,-1.883179,0.692611,0.112521,-0.451054,-0.885375,-0.057956,0.119481,0.456222,8.199407,-20.589157,-50.257557,,,,,,,
1508436985.674305,0.072153,0.351986,-0.816711,-6.363462,-2.228551,0.448058,0.067670,-0.344763,-0.936248,-0.202695,0.079153,-0.089937,4.900570,-12.605644,-53.235775,,,,,,,
1508436985.694311,0.033748,0.221895,-0.805349,-6.559724,-1.366048,0.107276,0.032914,-0.220079,-0.974927,-0.519364,0.358583,-0.725192,2.717657,-5.636335,-54.569332,,,,,,,
1508436985.714306,0.025624,0.099067,-0.806320,-5.640702,0.240159,-0.459454,0.025495,-0.098905,-0.994770,-0.490064,0.436399,-1.136608,2.055786,-2.060229,-54.849747,,,,,,,
1508436985.734320,0.041852,0.010317,-0.820429,-3.668097,0.872537,-1.054438,0.041838,-0.010317,-0.999071,0.135058,0.710665,-1.891249,2.443475,6.742826,-54.456673,,,,,,,
1508436985.754317,0.053590,-0.044561,-0.839189,-2.182140,0.430863,-0.906263,0.053511,0.044546,-0.997573,0.470506,0.279825,-1.728242,2.964359,3.880414,-54.124512,,,,,,,
1508436985.774330,0.056320,-0.074059,-0.844316,-1.076763,-0.050534,-0.022545,0.056136,0.073991,-0.995678,0.474793,0.129683,-1.560063,3.302295,6.126914,-53.896790,,,,,,,
1508436985.794333,0.050754,-0.086764,-0.838515,-0.444177,-0.403008,0.372358,0.050542,0.086655,-0.994955,0.277171,0.005371,-0.959238,3.111560,7.343465,-53.755924,,,,,,,
1508436985.814339,0.042004,-0.091787,-0.827368,-0.209669,-0.544181,0.624810,0.041815,0.091658,-0.994912,-0.015661,-0.162703,-0.545814,2.697965,7.676005,-53.731815,,,,,,,
1508436985.834345,0.032986,-0.094717,-0.815767,-0.153777,-0.424600,0.480150,0.032833,0.094575,-0.994976,-0.095531,-0.105272,-0.410145,2.325884,7.807163,-53.730309,,,,,,,
1508436985.854338,0.029627,-0.097804,-0.812557,-0.185591,-0.008109,-0.041956,0.029481,0.097648,-0.994784,-0.164399,-0.085045,-0.200421,1.953861,7.992403,-53.717892,,,,,,,
1508436985.874343,0.034088,-0.103203,-0.815811,-0.301462,0.321325,-0.166073,0.033900,0.103020,-0.994101,-0.117274,-0.180031,-0.138299,2.029198,8.174507,-53.687687,,,,,,,
1508436985.894360,0.037780,-0.109339,-0.816922,-0.283197,0.079248,-0.033553,0.037546,0.109121,-0.993319,-0.041376,-0.117849,-0.140943,2.313031,8.505253,-53.624794,,,,,,,
1508436985.914363,0.036560,-0.112934,-0.817913,-0.093386,-0.105002,-0.074742,0.036319,0.112694,-0.992966,-0.077136,-0.011971,-0.097183,2.334330,8.830853,-53.571213,,,,,,,
1508436985.934340,0.035328,-0.112498,-0.820092,0.064479,0.000534,-0.133971,0.035097,0.112261,-0.993059,-0.077211,0.013060,-0.041258,2.250815,8.862764,-53.569519,,,,,,,
1508436985.954357,0.035797,-0.112526,-0.823769,-0.052510,0.043313,-0.203814,0.035563,0.112289,-0.993039,-0.014994,-0.026748,-0.022021,2.238385,8.815972,-53.577759,,,,,,,
1508436985.974376,0.036067,-0.115652,-0.827183,-0.184972,0.042144,-0.135454,0.035819,0.115394,-0.992674,-0.028327,-0.025398,-0.018023,2.244871,8.954395,-53.554527,,,,,,,
1508436985.994369,0.037178,-0.118410,-0.828799,-0.074681,0.065463,-0.091090,0.036909,0.118134,-0.992311,-0.014692,0.068451,-0.041532,2.275439,9.099030,-53.528851,,,,,,,
1508436986.014387,0.037844,-0.117585,-0.831831,0.114546,0.037877,-0.169738,0.037573,0.117314,-0.992384,0.026437,0.081569,-0.036654,2.323687,9.156206,-53.517029,,,,,,,
1508436986.034390,0.037845,-0.114433,-0.835374,0.167036,0.016563,-0.171601,0.037588,0.114183,-0.992748,0.030191,0.025893,0.002682,2.326290,8.985365,-53.545860,,,,,,,
1508436986.054397,0.037739,-0.112568,-0.838579,0.049562,-0.006944,-0.121056,0.037491,0.112330,-0.992963,0.037506,-0.053386,0.022428,2.319519,8.875816,-53.564426,,,,,,,
1508436986.074400,0.036778,-0.112473,-0.839560,-0.003508,-0.047603,-0.024460,0.036538,0.112236,-0.993010,0.034263,-0.009361,0.043821,2.283512,8.836826,-53.572418,,,,,,,
1508436986.094404,0.036560,-0.112581,-0.840480,-0.001688,0.029151,-0.053298,0.036320,0.112343,-0.993006,0.042232,0.013649,0.046976,2.235258,8.843739,-53.573311,,,,,,,
1508436986.114388,0.036825,-0.112341,-0.841119,0.027405,-0.009259,-0.026105,0.036585,0.112105,-0.993023,0.085089,0.024141,0.010357,2.254963,8.843369,-53.572544,,,,,,,
1508436986.134415,0.036419,-0.111669,-0.842254,0.029411,-0.009176,-0.067694,0.036184,0.111437,-0.993113,0.092555,0.016432,0.027231,2.238938,8.812712,-53.578270,,,,,,,
1508436986.154418,0.036197,-0.111590,-0.843208,-0.010095,0.006730,-0.026309,0.035964,0.111359,-0.993129,0.131775,-0.017914,0.037487,2.213415,8.789436,-53.583157,,,,,,,
1508436986.174413,0.036718,-0.112141,-0.842691,-0.034504,0.025751,0.053406,0.036479,0.111906,-0.993049,0.166859,-0.028272,0.035484,2.225213,8.805157,-53.580086,,,,,,,
1508436986.194430,0.037638,-0.112201,-0.840628,0.021354,0.041554,0.134174,0.037393,0.111966,-0.993008,0.208716,-0.028180,0.017300,2.265817,8.833575,-53.573708,,,,,,,
1508436986.214433,0.038897,-0.111350,-0.837556,0.036400,0.051080,0.162815,0.038646,0.111120,-0.993055,0.281865,-0.054846,0.017729,2.353562,8.789660,-53.577145,,,,,,,
1508436986.234420,0.040219,-0.110931,-0.832897,-0.000557,0.023139,0.290137,0.039961,0.110703,-0.993050,0.359346,-0.097230,0.026390,2.418557,8.761769,-53.578819,,,,,,,
1508436986.254444,0.040840,-0.110110,-0.824964,0.048216,-0.002774,0.457886,0.040581,0.109887,-0.993115,0.404579,-0.100457,0.052777,2.482189,8.739750,-53.579506,,,,,,,
1508436986.274446,0.042079,-0.108075,-0.813512,0.073370,-0.004177,0.624230,0.041821,0.107865,-0.993286,0.479480,-0.125916,0.025573,2.513703,8.707607,-53.583271,,,,,,,
1508436986.294440,0.042379,-0.107135,-0.799582,-0.006146,-0.113068,0.752759,0.042124,0.106930,-0.993374,0.577948,-0.113400,-0.014622,2.656024,8.558748,-53.600384,,,,,,,
1508436986.314458,0.040280,-0.106175,-0.781042,0.044525,-0.289415,1.038915,0.040042,0.105976,-0.993562,0.589642,-0.025836,-0.014906,2.659326,8.521744,-53.606113,,,,,,,
1508436986.334459,0.034023,-0.103001,-0.755579,0.157821,-0.543745,1.427453,0.033837,0.102819,-0.994124,0.483330,-0.023611,-0.063264,2.427529,8.356519,-53.643112,,,,,,,
1508436986.354445,0.024877,-0.097956,-0.723537,0.174648,-0.569746,1.643210,0.024755,0.097800,-0.994898,0.302241,0.020471,-0.077551,2.025455,8.071526,-53.703407,,,,,,,
1508436986.374473,0.021966,-0.096006,-0.691949,-0.000392,-0.116761,1.534407,0.021863,0.095859,-0.995155,0.220111,0.055188,-0.091027,1.873622,7.958949,-53.725716,,,,,,,
1508436986.394475,0.023871,-0.095915,-0.660324,0.001104,-0.173378,1.614133,0.023759,0.095768,-0.995120,0.045867,0.085324,-0.222379,2.038188,7.872149,-53.732513,,,,,,,
1508436986.414473,0.019205,-0.092720,-0.628207,0.184690,-0.416147,1.562008,0.019121,0.092587,-0.995521,-0.187090,0.143284,-0.116784,1.942020,7.722076,-53.757843,,,,,,,
1508436986.434486,0.017976,-0.087791,-0.599681,0.221274,-0.022608,1.322753,0.017906,0.087678,-0.995988,-0.324730,0.140334,-0.050933,1.854711,7.587896,-53.780033,,,,,,,
1508436986.454490,0.024755,-0.085082,-0.576860,0.031982,0.364667,1.048571,0.024662,0.084979,-0.996077,-0.368062,0.095288,0.048064,2.188607,7.219487,-53.818184,,,,,,,
1508436986.474471,0.031788,-0.085051,-0.555819,-0.018587,0.105810,1.057694,0.031667,0.084949,-0.995882,-0.393575,0.113141,-0.013304,2.591512,7.188843,-53.804390,,,,,,,
1508436986.494501,0.033690,-0.083447,-0.537265,0.088836,0.057273,0.812002,0.033566,0.083350,-0.995955,-0.442257,0.174463,0.022887,2.798437,7.158919,-53.798016,,,,,,,
1508436986.514503,0.039532,-0.081028,-0.525148,0.074060,0.362570,0.493027,0.039392,0.080939,-0.995940,-0.495889,0.152322,0.058852,3.138925,6.953906,-53.806118,,,,,,,
1508436986.534508,0.049039,-0.081019,-0.517228,-0.056045,0.439546,0.369383,0.048859,0.080930,-0.995522,-0.381790,0.118365,0.004036,3.518003,6.904388,-53.789040,,,,,,,
1508436986.554515,0.055891,-0.081477,-0.509924,-0.006315,0.226562,0.331915,0.055677,0.081386,-0.995126,-0.377561,0.141834,-0.037741,3.906800,6.925905,-53.759434,,,,,,,
1508436986.574518,0.061755,-0.079348,-0.505966,0.157497,0.337705,0.131849,0.061522,0.079264,-0.994953,-0.364332,0.201589,0.055378,4.402414,6.858811,-53.729729,,,,,,,
1508436986.594497,0.067672,-0.075391,-0.504015,0.173930,0.201364,0.125283,0.067429,0.075319,-0.994877,-0.243256,0.039183,0.105824,4.763957,6.647673,-53.725422,,,,,,,
1508436986.614529,0.068951,-0.073912,-0.500484,-0.003884,-0.007543,0.208419,0.068708,0.073845,-0.994900,-0.252531,-0.038719,0.118389,4.883414,6.531784,-53.728912,,,,,,,
1508436986.634532,0.069580,-0.074630,-0.497102,-0.063329,0.065140,0.092249,0.069331,0.074561,-0.994803,-0.286692,0.086984,0.116111,4.900475,6.514016,-53.729515,,,,,,,
1508436986.654519,0.071804,-0.076286,-0.499923,-0.081940,0.154315,-0.286501,0.071534,0.076212,-0.994522,-0.204438,0.070532,0.091065,4.994183,6.588618,-53.711792,,,,,,,
1508436986.674543,0.074358,-0.079346,-0.506127,-0.149247,0.124494,-0.280687,0.074056,0.079262,-0.994099,-0.136526,-0.025612,0.036580,5.120862,6.720596,-53.683502,,,,,,,
1508436986.694536,0.074702,-0.082803,-0.510643,-0.154068,-0.016185,-0.245588,0.074377,0.082709,-0.993794,-0.099584,0.051721,0.012837,5.192228,6.957510,-53.646450,,,,,,,
1508436986.714553,0.073388,-0.086387,-0.516270,-0.157465,-0.026703,-0.312610,0.073048,0.086279,-0.993589,-0.121495,0.075525,0.015409,5.111092,7.154496,-53.628330,,,,,,,
1508436986.734557,0.072775,-0.089522,-0.522681,-0.112700,-0.004276,-0.347090,0.072420,0.089402,-0.993359,-0.120134,0.085463,0.008938,5.078685,7.253566,-53.618099,,,,,,,
1508436986.754561,0.070783,-0.091990,-0.529367,-0.094060,-0.120456,-0.314497,0.070425,0.091861,-0.993278,-0.070516,0.047101,-0.032219,4.960931,7.488134,-53.596874,,,,,,,
1508436986.774550,0.066502,-0.093934,-0.534220,-0.069892,-0.229304,-0.220168,0.066160,0.093795,-0.993391,-0.133696,0.057465,-0.033846,4.743876,7.607094,-53.599770,,,,,,,
1508436986.794571,0.060751,-0.095108,-0.538869,-0.021735,-0.279294,-0.264264,0.060439,0.094965,-0.993644,-0.163741,0.074728,-0.032372,4.599707,7.652448,-53.605881,,,,,,,
1508436986.814575,0.054983,-0.095716,-0.545771,-0.013675,-0.247089,-0.389494,0.054703,0.095570,-0.993918,-0.257096,0.096950,-0.034829,4.107265,7.727820,-53.635056,,,,,,,
1508436986.834578,0.049440,-0.096436,-0.554188,-0.003145,-0.237416,-0.433361,0.049190,0.096286,-0.994137,-0.284359,0.088787,-0.055469,3.787225,7.778024,-53.651348,,,,,,,
1508436986.854585,0.043676,-0.096315,-0.564695,0.050912,-0.234986,-0.590183,0.043460,0.096166,-0.994416,-0.315494,0.108057,-0.052657,3.624475,7.792823,-53.660442,,,,,,,
1508436986.874589,0.037537,-0.095608,-0.578628,0.062247,-0.248544,-0.737144,0.037357,0.095462,-0.994732,-0.356647,0.063687,-0.007526,3.100135,7.772715,-53.696201,,,,,,,
1508436986.894590,0.030480,-0.095595,-0.595956,0.003680,-0.252300,-0.982295,0.030336,0.095450,-0.994972,-0.367693,0.107370,0.012153,2.686501,7.771255,-53.718697,,,,,,,
1508436986.914600,0.025273,-0.097084,-0.620271,-0.054583,-0.093964,-1.316168,0.025151,0.096931,-0.994973,-0.361806,0.116066,0.013711,2.395649,7.826502,-53.724430,,,,,,,
1508436986.934604,0.022006,-0.098992,-0.648521,-0.064898,-0.007413,-1.448570,0.021897,0.098831,-0.994863,-0.233109,0.096085,0.018240,2.045738,7.979475,-53.716393,,,,,,,
1508436986.954604,0.018741,-0.099960,-0.677927,0.019780,-0.058561,-1.451091,0.018647,0.099794,-0.994833,-0.132218,0.079894,0.001822,1.869191,8.062967,-53.710358,,,,,,,
1508436986.974608,0.011676,-0.099292,-0.706662,0.066564,-0.294036,-1.427451,0.011619,0.099129,-0.995007,-0.074042,0.073783,-0.007267,1.534335,8.084127,-53.717785,,,,,,,
1508436986.994617,0.003071,-0.098003,-0.736136,0.092934,-0.239580,-1.495438,0.003056,0.097847,-0.995197,0.061687,0.071160,0.043247,1.132337,8.060678,-53.731285,,,,,,,
1508436987.014600,-0.001709,-0.095120,-0.767502,0.153027,-0.034888,-1.586954,-0.001701,0.094976,-0.995478,0.289040,-0.009893,0.081461,0.536000,7.955965,-53.756149,,,,,,,
1508436987.034629,-0.009091,-0.093941,-0.798205,-0.036021,-0.356831,-1.441392,-0.009051,0.093803,-0.995550,0.450686,-0.125175,0.057470,0.303610,7.848264,-53.773788,,,,,,,
1508436987.054631,-0.018466,-0.096789,-0.821088,-0.214215,-0.340744,-0.940330,-0.018379,0.096638,-0.995150,0.577675,-0.101017,0.039919,-0.528945,7.936249,-53.759132,,,,,,,
1508436987.074637,-0.027197,-0.100445,-0.836483,-0.163973,-0.404118,-0.683536,-0.027056,0.100276,-0.994592,0.635485,0.026189,-0.045585,-1.032405,8.152025,-53.719517,,,,,,,
1508436987.094620,-0.040673,-0.102130,-0.846938,-0.090487,-0.714658,-0.413579,-0.040450,0.101952,-0.993967,0.633910,-0.007729,-0.090323,-1.326877,8.222867,-53.702248,,,,,,,
1508436987.114641,-0.054445,-0.105448,-0.852998,-0.247600,-0.580758,-0.234132,-0.054116,0.105252,-0.992972,0.456292,0.015963,-0.039468,-2.509521,8.402018,-53.632233,,,,,,,
1508436987.134627,-0.062929,-0.110457,-0.855759,-0.225269,-0.323359,-0.042748,-0.062504,0.110233,-0.991938,0.342137,0.035611,-0.075231,-3.046349,8.675182,-53.560890,,,,,,,
1508436987.154657,-0.069324,-0.112359,-0.855253,-0.022714,-0.343805,0.035237,-0.068832,0.112122,-0.991308,0.295471,0.038894,-0.100672,-3.215491,8.780934,-53.533760,,,,,,,
1508436987.174659,-0.074516,-0.112209,-0.855180,-0.004094,-0.177541,-0.010907,-0.073978,0.111974,-0.990954,0.125782,-0.037755,-0.030104,-3.704295,8.827787,-53.494450,,,,,,,
1508436987.194643,-0.074731,-0.113446,-0.856804,-0.100541,0.099686,-0.132148,-0.074182,0.113203,-0.990799,0.073541,-0.054517,-0.015183,-3.788270,8.870979,-53.481422,,,,,,,
1508436987.214670,-0.071026,-0.115319,-0.860218,-0.092434,0.236065,-0.147994,-0.070495,0.115064,-0.990854,0.069961,-0.057721,-0.010077,-3.732852,8.921904,-53.476849,,,,,,,
1508436987.234674,-0.067294,-0.116453,-0.861761,-0.046863,0.147413,-0.034781,-0.066788,0.116190,-0.990979,0.083893,-0.059916,-0.004932,-3.419372,9.045737,-53.477009,,,,,,,
1508436987.254677,-0.065984,-0.117045,-0.862152,-0.017565,0.029130,-0.017093,-0.065485,0.116778,-0.990997,0.043054,-0.028078,0.005920,-3.319196,9.085048,-53.476658,,,,,,,
1508436987.274685,-0.065513,-0.117181,-0.862144,-0.000345,0.036508,0.020108,-0.065017,0.116913,-0.991012,0.010131,-0.029602,0.005523,-3.308766,9.092759,-53.475990,,,,,,,
1508436987.294688,-0.064454,-0.117326,-0.861331,-0.016375,0.052448,0.041214,-0.063966,0.117057,-0.991063,-0.006560,-0.013572,0.009404,-3.243818,9.099302,-53.478859,,,,,,,
1508436987.314669,-0.063216,-0.118425,-0.860775,-0.075317,0.071657,0.031383,-0.062731,0.118149,-0.991012,-0.030988,-0.016006,0.007294,-3.197524,9.125593,-53.477165,,,,,,,
1508436987.334699,-0.060957,-0.120257,-0.860111,-0.079732,0.128096,0.041231,-0.060480,0.119967,-0.990934,-0.037055,-0.005145,0.000135,-3.134763,9.187267,-53.470322,,,,,,,
1508436987.354702,-0.058776,-0.121211,-0.859475,-0.029350,0.080180,0.024827,-0.058311,0.120914,-0.990949,-0.018044,0.017422,-0.027682,-2.939588,9.303793,-53.461254,,,,,,,
1508436987.374704,-0.057012,-0.121581,-0.859175,-0.010171,0.098302,0.016020,-0.056561,0.121282,-0.991005,-0.031940,0.001276,-0.027137,-2.875090,9.324478,-53.461163,,,,,,,
1508436987.394713,-0.055478,-0.121488,-0.859228,0.016522,0.076002,-0.022064,-0.055040,0.121189,-0.991102,-0.034574,0.000042,-0.050844,-2.777347,9.333742,-53.464710,,,,,,,
1508436987.414716,-0.053171,-0.120575,-0.860015,0.052685,0.137874,-0.050770,-0.052760,0.120283,-0.991337,-0.033787,0.025316,-0.055615,-2.716175,9.318752,-53.470470,,,,,,,
1508436987.434707,-0.050528,-0.120171,-0.861109,-0.006144,0.137874,-0.043262,-0.050142,0.119882,-0.991521,0.008653,-0.012338,-0.069819,-2.550553,9.258411,-53.489105,,,,,,,
1508436987.454728,-0.047920,-0.119106,-0.860996,-0.004702,0.084484,0.021489,-0.047562,0.118824,-0.991775,-0.008316,0.016185,-0.124649,-2.391580,9.195527,-53.507294,,,,,,,
1508436987.474731,-0.046398,-0.118208,-0.860297,0.088487,0.072707,0.039717,-0.046057,0.117933,-0.991953,-0.018670,0.019610,-0.172522,-2.341589,9.199623,-53.508801,,,,,,,
1508436987.494736,-0.044919,-0.115199,-0.859454,0.180512,0.059924,0.028104,-0.044607,0.114944,-0.992370,-0.023676,-0.009811,-0.213212,-2.214902,9.082239,-53.534241,,,,,,,
1508436987.514741,-0.043747,-0.112158,-0.858944,0.105584,0.045072,0.007050,-0.043458,0.111923,-0.992766,-0.010222,-0.055191,-0.279207,-2.143501,8.894900,-53.568592,,,,,,,
1508436987.534746,-0.042156,-0.112007,-0.859616,-0.010453,0.143214,-0.048668,-0.041880,0.111773,-0.992851,-0.005789,-0.040011,-0.377358,-2.068278,8.816595,-53.584492,,,,,,,
1508436987.554751,-0.036991,-0.109757,-0.859900,0.196861,0.279435,-0.010280,-0.036760,0.109537,-0.993303,-0.020735,0.049170,-0.461745,-1.831201,8.751136,-53.603844,,,,,,,
1508436987.574755,-0.031941,-0.103216,-0.859915,0.405853,0.191989,0.012158,-0.031765,0.103033,-0.994171,0.028668,0.029352,-0.501236,-1.682631,8.632088,-53.628014,,,,,,,
1508436987.594759,-0.031454,-0.093301,-0.858521,0.551233,-0.081882,0.046943,-0.031312,0.093166,-0.995158,0.021654,-0.018840,-0.660771,-1.440161,7.961934,-53.738640,,,,,,,
1508436987.614757,-0.034253,-0.083948,-0.858876,0.360517,-0.150798,-0.091600,-0.034126,0.083850,-0.995894,-0.026833,-0.082186,-0.809267,0.478282,13.495711,-49.145123,,,,,,,
1508436987.634769,-0.034266,-0.083166,-0.862955,-0.092815,0.260835,-0.261440,-0.034141,0.083070,-0.995959,-0.030922,-0.077745,-0.911741,0.390231,13.354445,-49.184475,,,,,,,
1508436987.654774,-0.017913,-0.080258,-0.866326,0.388133,1.017734,-0.080843,-0.017854,0.080172,-0.996621,-0.036253,0.339963,-1.163032,0.923584,13.336479,-49.182228,,,,,,,
1508436987.674758,-0.000065,-0.057841,-0.865199,1.638529,0.701679,0.136063,-0.000065,0.057808,-0.998328,0.097324,0.418052,-1.170709,1.655807,12.853420,-49.291519,,,,,,,
1508436987.694784,0.004641,-0.006596,-0.857956,3.076703,0.033712,0.522141,0.004641,0.006596,-0.999967,0.141660,0.415477,-1.047945,2.186404,11.631751,-49.573463,,,,,,,
1508436987.714788,0.001564,0.064743,-0.844705,3.762723,-0.178782,0.693184,0.001561,-0.064697,-0.997904,-0.044927,0.336289,-0.452185,2.351368,6.909427,-50.441422,,,,,,,
1508436987.734786,-0.001688,0.142002,-0.833882,3.948577,-0.016345,0.408119,-0.001671,-0.141526,-0.989933,-0.130409,0.339295,0.043202,2.292218,3.976280,-50.759644,,,,,,,
1508436987.754798,0.003146,0.221377,-0.828852,3.965730,0.471938,0.202693,0.003069,-0.219573,-0.975591,-0.137972,0.396972,0.300130,2.287907,0.992355,-50.905670,,,,,,,
1508436987.774802,0.011876,0.300383,-0.823785,3.922380,0.443981,0.338551,0.011344,-0.295886,-0.955156,-0.025885,0.315769,0.797670,2.938747,-5.069219,-50.628777,,,,,,,
1508436987.794795,0.012853,0.376135,-0.816266,3.647839,0.013534,0.419641,0.011954,-0.367328,-0.930015,0.013681,0.302005,1.043983,3.168364,-8.972949,-50.070488,,,,,,,
1508436987.814812,0.006504,0.442408,-0.808897,3.051191,-0.242846,0.323574,0.005878,-0.428117,-0.903704,0.021359,0.371339,1.075701,3.053893,-11.630794,-49.527817,,,,,,,
1508436987.834816,0.003057,0.493941,-0.803144,2.308318,0.131370,0.256859,0.002692,-0.474099,-0.880467,0.007929,0.390390,1.134557,2.897359,-13.193798,-49.144024,,,,,,,
1508436987.854812,0.006011,0.531572,-0.797753,1.612139,0.292496,0.205994,0.005181,-0.506889,-0.861996,0.021140,0.358910,0.989025,2.860850,-16.721466,-48.060524,,,,,,,
1508436987.874828,0.009265,0.554987,-0.795545,0.921817,0.171535,0.054719,0.007875,-0.526932,-0.849871,0.033431,0.275895,0.811861,3.061153,-18.185669,-47.513332,,,,,,,
1508436987.894829,0.012384,0.566904,-0.795547,0.451661,0.218683,-0.025584,0.010447,-0.537023,-0.843503,-0.035517,0.222128,0.662625,3.228628,-19.120035,-47.133919,,,,,,,
1508436987.914835,0.021851,0.574186,-0.797156,0.338266,0.509630,-0.080901,0.018346,-0.543151,-0.839434,-0.086873,0.202331,0.515811,3.464560,-19.405733,-47.000217,,,,,,,
1508436987.934826,0.032730,0.580125,-0.800441,0.276401,0.359599,-0.156519,0.027370,-0.548128,-0.835946,0.019322,0.154116,0.418313,3.970491,-19.708845,-46.833778,,,,,,,
1508436987.954845,0.036966,0.582677,-0.803968,0.021883,-0.012183,-0.116815,0.030859,-0.550261,-0.834422,0.037012,0.067046,0.362956,4.342641,-19.945629,-46.700314,,,,,,,
1508436987.974837,0.038614,0.578677,-0.805938,-0.327220,0.109282,-0.087392,0.032319,-0.546917,-0.836563,-0.076753,0.076168,0.338074,4.361301,-19.893612,-46.720760,,,,,,,
1508436987.994855,0.046772,0.569144,-0.809396,-0.525564,0.445165,-0.229667,0.039385,-0.538911,-0.841442,-0.076189,0.102815,0.289272,4.544449,-19.550331,-46.848042,,,,,,,
1508436988.014858,0.061100,0.558288,-0.815011,-0.509959,0.559208,-0.263321,0.051791,-0.529735,-0.846580,0.010008,0.105693,0.209312,5.249846,-18.903271,-47.039467,,,,,,,
1508436988.034865,0.070998,0.548011,-0.819837,-0.510969,0.231018,-0.213777,0.060551,-0.520991,-0.851412,0.084255,0.046046,0.189318,5.668772,-18.530117,-47.139217,,,,,,,
1508436988.054869,0.072340,0.536020,-0.821822,-0.650860,-0.077075,-0.075916,0.062140,-0.510718,-0.857500,0.040369,0.010383,0.177797,5.912696,-18.008036,-47.311275,,,,,,,
1508436988.074872,0.071469,0.522074,-0.821295,-0.715186,0.031472,-0.014530,0.061895,-0.498679,-0.864574,-0.041052,0.073981,0.194973,5.874876,-17.208092,-47.612743,,,,,,,
1508436988.094863,0.074791,0.506768,-0.821667,-0.783563,0.248995,-0.113601,0.065330,-0.485354,-0.871873,-0.035576,0.083026,0.189256,5.937152,-16.678997,-47.792965,,,,,,,
1508436988.114884,0.081883,0.491419,-0.823148,-0.728121,0.304396,-0.125109,0.072113,-0.471877,-0.878710,-0.018554,0.121520,0.186449,6.230742,-15.918015,-48.014595,,,,,,,
1508436988.134887,0.087332,0.477758,-0.824721,-0.638988,0.218051,-0.105796,0.077455,-0.459790,-0.884643,0.021666,0.127240,0.265762,6.609343,-15.045641,-48.244705,,,,,,,
1508436988.154889,0.089667,0.465184,-0.824073,-0.642482,0.052757,-0.013827,0.080031,-0.448587,-0.890149,-0.024123,0.132730,0.289090,6.765177,-14.584087,-48.364689,,,,,,,
1508436988.174898,0.091010,0.451266,-0.825189,-0.721176,0.076526,-0.170859,0.081786,-0.436105,-0.896171,-0.043639,0.131220,0.335380,6.814024,-14.113648,-48.497223,,,,,,,
1508436988.194902,0.096782,0.435082,-0.828641,-0.825025,0.346257,-0.271726,0.087628,-0.421485,-0.902592,-0.137403,0.199057,0.362644,7.045562,-12.999743,-48.774715,,,,,,,
1508436988.214900,0.111229,0.417948,-0.834762,-0.806246,0.704475,-0.424085,0.101445,-0.405886,-0.908276,-0.026464,0.317141,0.411725,7.622490,-12.142986,-48.908607,,,,,,,
1508436988.234911,0.128594,0.400665,-0.843655,-0.832040,0.625867,-0.530622,0.118084,-0.390031,-0.913199,0.037663,0.270143,0.445563,8.231584,-11.500013,-48.965263,,,,,,,
1508436988.254915,0.137874,0.382869,-0.849095,-0.822155,0.163984,-0.212571,0.127487,-0.373583,-0.918794,0.101807,0.180895,0.486131,8.994367,-10.367350,-49.083862,,,,,,,
1508436988.274921,0.132917,0.368899,-0.846053,-0.649183,-0.387527,0.158906,0.123610,-0.360589,-0.924498,0.011628,0.267922,0.599150,8.950647,-9.617044,-49.244331,,,,,,,
1508436988.294927,0.118633,0.353420,-0.840644,-0.982383,-0.664306,0.109855,0.111040,-0.346109,-0.931600,0.000242,0.283899,0.679769,8.708712,-9.311022,-49.346420,,,,,,,
1508436988.314907,0.098146,0.324960,-0.832245,-1.767727,-1.123757,0.376218,0.092860,-0.319271,-0.943103,-0.105403,-0.068882,0.612796,7.584389,-7.714392,-49.805336,,,,,,,
1508436988.334914,0.066819,0.281409,-0.817726,-2.482208,-1.401953,0.551397,0.064143,-0.277710,-0.958521,-0.217387,0.046677,0.545664,6.240932,-5.728783,-50.257717,,,,,,,
1508436988.354931,0.036647,0.221485,-0.805689,-3.426320,-1.230735,0.278782,0.035744,-0.219679,-0.974917,-0.274879,0.061613,0.367587,5.506103,-4.465874,-50.471226,,,,,,,
1508436988.374863,0.022779,0.140005,-0.805253,-4.329459,-0.427208,-0.312262,0.022554,-0.139548,-0.989958,-0.240251,0.065467,-0.609682,3.879490,0.930558,-50.810329,,,,,,,
1508436988.394870,0.023447,0.056773,-0.816724,-3.878364,0.254390,-0.826845,0.023408,-0.056742,-0.998114,0.004959,0.473185,-1.266030,3.649530,5.292248,-50.559662,,,,,,,
1508436988.414860,0.029771,-0.000845,-0.830751,-2.158017,0.187638,-0.669412,0.029766,0.000845,-0.999557,0.333652,0.537012,-1.707032,3.806451,7.991174,-50.192215,,,,,,,
1508436988.434874,0.024341,-0.024571,-0.838116,-0.744253,-0.493206,-0.233012,0.024332,0.024568,-0.999402,0.443091,0.156431,-1.527408,3.657155,10.232936,-49.794765,,,,,,,
1508436988.454860,0.015122,-0.033518,-0.837563,-0.339065,-0.341690,0.122764,0.015113,0.033512,-0.999324,0.238565,-0.039097,-1.155400,3.253447,10.687865,-49.727165,,,,,,,
1508436988.474890,0.013243,-0.038024,-0.836028,-0.136038,0.001475,0.017403,0.013233,0.038015,-0.999190,0.147015,-0.028417,-0.842256,2.994039,11.002815,-49.674744,,,,,,,
1508436988.494893,0.012558,-0.035682,-0.834795,0.257440,-0.114995,0.147819,0.012550,0.035675,-0.999285,0.073342,-0.144592,-0.541212,2.985163,11.033987,-49.668362,,,,,,,
1508436988.514888,0.007150,-0.027332,-0.828485,0.481528,-0.366921,0.385891,0.007147,0.027329,-0.999601,-0.137320,-0.321610,-0.350741,2.882848,10.781651,-49.729786,,,,,,,
1508436988.534904,0.000031,-0.020280,-0.822965,0.215094,-0.269443,0.147958,0.000031,0.020278,-0.999794,-0.212997,-0.282165,0.003640,2.586701,10.311857,-49.845566,,,,,,,
1508436988.554898,0.000645,-0.022301,-0.825860,-0.282266,0.234399,-0.316419,0.000645,0.022299,-0.999751,-0.237339,-0.190893,0.135524,2.412445,10.206030,-49.876080,,,,,,,
1508436988.574897,0.009801,-0.030923,-0.835477,-0.447587,0.542718,-0.529761,0.009796,0.030918,-0.999474,-0.099320,-0.042072,0.048653,2.611262,10.494267,-49.806202,,,,,,,
1508436988.594917,0.016994,-0.037829,-0.844934,-0.244075,0.225023,-0.427207,0.016981,0.037820,-0.999140,0.043810,0.023108,-0.056203,3.002211,10.946045,-49.686790,,,,,,,
1508436988.614921,0.017910,-0.040948,-0.851888,-0.128578,0.006403,-0.317493,0.017894,0.040936,-0.999002,0.066075,0.049747,-0.005942,3.091426,11.097761,-49.647648,,,,,,,
1508436988.634914,0.018635,-0.044457,-0.856982,-0.199036,0.072243,-0.206433,0.018615,0.044443,-0.998838,0.097763,0.022192,0.016233,3.052924,11.352129,-49.592487,,,,,,,
1508436988.654932,0.018319,-0.048877,-0.858681,-0.214023,-0.090029,-0.025996,0.018296,0.048858,-0.998638,0.126067,0.029694,-0.027836,3.064632,11.565953,-49.542336,,,,,,,
1508436988.674935,0.015037,-0.051865,-0.857891,-0.100075,-0.175442,0.057262,0.015016,0.051841,-0.998542,0.034254,0.054024,-0.013237,2.912339,11.798472,-49.496674,,,,,,,
1508436988.694941,0.014073,-0.052262,-0.857930,0.009199,0.031390,-0.044986,0.014054,0.052238,-0.998536,0.016830,0.058815,0.017838,2.823700,11.843805,-49.490982,,,,,,,
1508436988.714928,0.015190,-0.052688,-0.859196,-0.060451,0.046353,-0.061145,0.015169,0.052664,-0.998497,0.076445,-0.050284,0.023567,2.848755,11.842722,-49.489803,,,,,,,
1508436988.734949,0.015231,-0.055722,-0.860035,-0.197135,-0.011206,-0.026086,0.015206,0.055693,-0.998332,0.069770,-0.058821,0.016872,2.865695,11.968786,-49.458492,,,,,,,
1508436988.754954,0.015913,-0.060428,-0.860300,-0.241276,0.080414,-0.025249,0.015883,0.060391,-0.998048,0.069521,-0.020581,-0.006239,2.862668,12.130871,-49.419163,,,,,,,
1508436988.774960,0.018381,-0.064826,-0.861227,-0.203094,0.160361,-0.057360,0.018341,0.064781,-0.997731,0.137695,-0.007499,-0.032283,2.938029,12.365347,-49.356583,,,,,,,
1508436988.794963,0.022010,-0.068174,-0.861605,-0.160161,0.183662,0.004116,0.021957,0.068121,-0.997435,0.211533,-0.011420,-0.035417,3.133092,12.597049,-49.285942,,,,,,,
1508436988.814957,0.024805,-0.071335,-0.859674,-0.152925,0.081082,0.162344,0.024739,0.071275,-0.997150,0.266506,-0.038636,-0.029904,3.266397,12.716411,-49.246624,,,,,,,
1508436988.834974,0.027155,-0.074232,-0.854907,-0.145251,0.137322,0.270285,0.027077,0.074164,-0.996878,0.282936,-0.029120,0.011145,3.397074,12.856955,-49.201267,,,,,,,
1508436988.854978,0.031541,-0.076763,-0.848274,-0.133469,0.236199,0.363743,0.031443,0.076688,-0.996559,0.357610,-0.038633,0.049996,3.685960,13.005037,-49.141518,,,,,,,
1508436988.874969,0.035878,-0.077946,-0.837670,-0.038045,0.107805,0.635308,0.035761,0.077867,-0.996322,0.401082,-0.042314,0.026184,4.009797,13.068834,-49.099220,,,,,,,
1508436988.894989,0.036182,-0.077307,-0.822000,0.028641,-0.128069,0.856204,0.036066,0.077230,-0.996361,0.356726,-0.048879,0.037193,4.180772,13.041525,-49.092216,,,,,,,
1508436988.914991,0.036820,-0.076287,-0.804711,-0.002007,0.074387,0.828766,0.036705,0.076213,-0.996416,0.270760,-0.011455,0.086534,4.354771,12.920362,-49.109131,,,,,,,
1508436988.934993,0.043719,-0.077488,-0.788408,-0.152703,0.386517,0.839281,0.043574,0.077410,-0.996047,0.331838,-0.040087,0.064131,4.631431,12.891441,-49.091412,,,,,,,
1508436988.955003,0.051043,-0.079800,-0.767327,-0.139080,0.136563,1.183046,0.050858,0.079715,-0.995519,0.364761,-0.031146,0.004675,5.068750,12.938886,-49.035694,,,,,,,
1508436988.975006,0.050497,-0.078995,-0.739935,0.039531,-0.269860,1.445784,0.050319,0.078913,-0.995611,0.267034,0.044958,-0.019129,5.653440,12.898762,-48.982311,,,,,,,
1508436988.994990,0.047360,-0.076594,-0.711417,0.016677,-0.195188,1.395669,0.047203,0.076519,-0.995950,0.094383,-0.033535,0.008157,5.740855,12.679569,-49.029350,,,,,,,
1508436989.015017,0.045870,-0.075925,-0.682107,-0.048165,-0.215640,1.510108,0.045722,0.075852,-0.996070,0.028207,-0.066773,-0.034798,5.878579,12.563864,-49.042816,,,,,,,
1508436989.035020,0.043001,-0.075205,-0.653276,-0.013397,-0.227010,1.332175,0.042866,0.075134,-0.996252,-0.160954,0.049347,-0.073573,6.049036,12.388971,-49.066574,,,,,,,
1508436989.055018,0.044460,-0.075070,-0.630331,-0.065478,0.081396,1.061166,0.044320,0.075000,-0.996198,-0.256494,0.065885,-0.030383,6.259059,12.269731,-49.070194,,,,,,,
1508436989.075016,0.046911,-0.075880,-0.611289,-0.072541,0.089236,0.870189,0.046759,0.075808,-0.996026,-0.246329,0.073622,-0.040840,6.418691,12.240754,-49.056808,,,,,,,
1508436989.095030,0.050190,-0.075231,-0.594315,0.032265,0.087120,0.849882,0.050027,0.075160,-0.995916,-0.409478,0.096501,-0.024943,6.856431,12.142726,-49.021931,,,,,,,
1508436989.115016,0.053249,-0.073665,-0.577912,0.011678,0.087283,0.770989,0.053079,0.073598,-0.995874,-0.394129,0.122370,-0.005423,7.149419,11.984724,-49.018959,,,,,,,
1508436989.135045,0.056158,-0.073929,-0.565156,-0.080010,0.104769,0.560742,0.055975,0.073862,-0.995696,-0.389395,0.148840,0.000961,7.283693,11.931740,-49.012115,,,,,,,
1508436989.155048,0.059393,-0.075131,-0.554609,-0.081213,0.100598,0.516019,0.059190,0.075061,-0.995421,-0.347292,0.103345,-0.048372,7.653648,11.917356,-48.959213,,,,,,,
1508436989.175044,0.060922,-0.074465,-0.545446,0.066385,0.000654,0.403263,0.060716,0.074397,-0.995379,-0.304002,0.156118,-0.030210,7.835143,11.872532,-48.941391,,,,,,,
1508436989.195060,0.062038,-0.071873,-0.539917,0.115867,0.083014,0.228225,0.061838,0.071811,-0.995499,-0.304727,0.144330,0.008729,7.879055,11.802861,-48.951191,,,,,,,
1508436989.215063,0.064337,-0.070053,-0.536265,0.046076,0.088495,0.159954,0.064135,0.069996,-0.995483,-0.232333,0.027676,0.051666,8.073263,11.595520,-48.969097,,,,,,,
1508436989.235042,0.065548,-0.070208,-0.533789,-0.045988,0.043883,0.107355,0.065339,0.070150,-0.995394,-0.203019,-0.016210,0.048953,8.148981,11.563712,-48.964081,,,,,,,
1508436989.255074,0.066434,-0.071192,-0.532872,-0.044245,0.035620,-0.022615,0.066217,0.071132,-0.995267,-0.203882,0.013219,0.048688,8.199614,11.582934,-48.951080,,,,,,,
1508436989.275077,0.066502,-0.071790,-0.535537,-0.011509,-0.005588,-0.194783,0.066282,0.071728,-0.995219,-0.138655,0.017551,0.045619,8.227484,11.649117,-48.930695,,,,,,,
1508436989.295073,0.067299,-0.072717,-0.540706,-0.046321,0.096848,-0.277281,0.067071,0.072653,-0.995100,-0.139199,-0.048178,0.041181,8.201402,11.689526,-48.925434,,,,,,,
1508436989.315089,0.070027,-0.074819,-0.546782,-0.103501,0.181150,-0.344572,0.069774,0.074749,-0.994758,-0.110912,-0.041775,0.036201,8.224820,11.757646,-48.905178,,,,,,,
1508436989.335091,0.072169,-0.077586,-0.554666,-0.114221,0.105670,-0.419176,0.071890,0.077508,-0.994396,-0.044119,0.020545,0.003308,8.330606,11.993361,-48.829975,,,,,,,
1508436989.355098,0.071984,-0.079984,-0.562195,-0.078366,-0.010572,-0.357805,0.071692,0.079898,-0.994222,-0.021033,0.011532,-0.012813,8.282685,12.158652,-48.797237,,,,,,,
1508436989.375103,0.071754,-0.081519,-0.568944,-0.033438,0.031957,-0.323267,0.071455,0.081429,-0.994114,-0.037763,0.020118,-0.024776,8.216583,12.253147,-48.784775,,,,,,,
1508436989.395106,0.071095,-0.081856,-0.574776,0.025767,-0.043768,-0.283826,0.070797,0.081765,-0.994134,-0.022183,0.034949,-0.029777,8.190142,12.299833,-48.777473,,,,,,,
1508436989.415095,0.068661,-0.081594,-0.580701,0.030301,-0.121480,-0.292355,0.068378,0.081504,-0.994325,-0.082279,0.032342,-0.016616,8.034080,12.349718,-48.790821,,,,,,,
1508436989.435116,0.066212,-0.081722,-0.586673,0.007611,-0.070302,-0.313339,0.065943,0.081631,-0.994479,-0.125056,0.047672,-0.004560,7.848549,12.370665,-48.815708,,,,,,,
1508436989.455107,0.063140,-0.081038,-0.594201,0.093148,-0.160662,-0.416591,0.062891,0.080949,-0.994732,-0.152216,0.084944,-0.048176,7.625112,12.398050,-48.844162,,,,,,,
1508436989.475123,0.059770,-0.079254,-0.602794,0.111216,-0.097856,-0.397255,0.059547,0.079171,-0.995081,-0.228767,0.046836,-0.005362,7.373051,12.353750,-48.894058,,,,,,,
1508436989.495121,0.057452,-0.078403,-0.610759,0.047983,-0.093526,-0.423928,0.057244,0.078322,-0.995283,-0.228585,0.059541,0.003737,7.281133,12.333032,-48.913059,,,,,,,
1508436989.515116,0.054190,-0.077617,-0.621057,0.087271,-0.146513,-0.566074,0.054000,0.077539,-0.995526,-0.265228,0.104071,-0.011356,6.969187,12.340795,-48.956524,,,,,,,
1508436989.535121,0.050048,-0.076331,-0.634774,0.101743,-0.157900,-0.733329,0.049882,0.076257,-0.995840,-0.262971,0.069770,-0.031992,6.663445,12.333469,-49.000923,,,,,,,
1508436989.555145,0.046115,-0.075041,-0.650543,0.102382,-0.095964,-0.809935,0.045968,0.074970,-0.996126,-0.263620,0.059032,-0.045378,6.493199,12.332294,-49.024063,,,,,,,
1508436989.575148,0.044619,-0.073647,-0.668028,0.103797,0.049090,-0.901609,0.044484,0.073581,-0.996297,-0.248082,0.077375,-0.020274,6.072021,12.330586,-49.078442,,,,,,,
1508436989.595149,0.043031,-0.072841,-0.686354,0.078628,-0.131979,-0.908561,0.042903,0.072776,-0.996425,-0.140102,0.037560,-0.049550,5.943494,12.345358,-49.090458,,,,,,,
1508436989.615160,0.036195,-0.070454,-0.705306,0.212789,-0.317275,-0.952892,0.036097,0.070395,-0.996866,-0.099116,0.073388,-0.018835,5.681616,12.362453,-49.117157,,,,,,,
1508436989.635163,0.028349,-0.065724,-0.724480,0.272792,-0.327972,-0.937853,0.028284,0.065676,-0.997440,-0.079355,0.030485,0.068058,4.874150,12.188047,-49.247337,,,,,,,
1508436989.655147,0.020369,-0.062121,-0.743245,0.139015,-0.325800,-0.942050,0.020328,0.062081,-0.997864,-0.005451,-0.006936,0.107331,4.454273,12.066678,-49.316944,,,,,,,
1508436989.675174,0.012970,-0.062035,-0.762064,-0.040741,-0.309814,-0.922953,0.012945,0.061995,-0.997992,0.050028,-0.031096,0.108512,4.042020,12.024222,-49.362804,,,,,,,
1508436989.695177,0.005428,-0.063816,-0.780382,-0.082399,-0.332179,-0.920465,0.005417,0.063772,-0.997950,0.181396,-0.014334,0.037958,3.243078,12.186444,-49.381973,,,,,,,
1508436989.715181,-0.001911,-0.064459,-0.798971,-0.004434,-0.280004,-0.919148,-0.001907,0.064414,-0.997921,0.265854,-0.000327,0.036618,2.830493,12.274406,-49.385559,,,,,,,
1508436989.735189,-0.008206,-0.065385,-0.816139,-0.098261,-0.267430,-0.803033,-0.008188,0.065338,-0.997830,0.338297,-0.047760,0.030895,2.452438,12.318500,-49.394802,,,,,,,
1508436989.755190,-0.015726,-0.068808,-0.830294,-0.214132,-0.350809,-0.642858,-0.015688,0.068754,-0.997510,0.466280,-0.056821,-0.018527,1.732928,12.539572,-49.369648,,,,,,,
1508436989.775172,-0.022985,-0.072775,-0.840633,-0.190052,-0.300108,-0.430351,-0.022922,0.072711,-0.997090,0.441715,0.000592,-0.018535,1.364237,12.712906,-49.336872,,,,,,,
1508436989.795202,-0.029554,-0.075237,-0.847772,-0.109371,-0.314213,-0.311847,-0.029466,0.075166,-0.996736,0.410676,-0.019792,-0.029113,0.960106,12.895634,-49.298954,,,,,,,
1508436989.815205,-0.035673,-0.077502,-0.852253,-0.141233,-0.239922,-0.170016,-0.035559,0.077424,-0.996364,0.310705,-0.060807,-0.017125,0.493451,13.040920,-49.267609,,,,,,,
1508436989.835200,-0.038007,-0.080537,-0.855831,-0.156914,-0.022574,-0.188085,-0.037875,0.080450,-0.996039,0.223482,0.012522,-0.009760,0.294804,13.194239,-49.228359,,,,,,,
1508436989.855216,-0.037406,-0.083497,-0.859308,-0.155930,0.061479,-0.138122,-0.037267,0.083400,-0.995819,0.206014,-0.002482,-0.010101,0.268123,13.271002,-49.207874,,,,,,,
1508436989.875191,-0.036712,-0.085857,-0.861084,-0.094580,0.022965,-0.062969,-0.036569,0.085752,-0.995645,0.137903,-0.037870,-0.016486,0.293271,13.482338,-49.150246,,,,,,,
1508436989.895198,-0.036626,-0.086901,-0.862320,-0.045326,0.020808,-0.055510,-0.036480,0.086792,-0.995558,0.073712,-0.058746,-0.010026,0.286644,13.548292,-49.132145,,,,,,,
1508436989.915215,-0.035395,-0.088124,-0.863295,-0.076590,0.103895,-0.051360,-0.035250,0.088010,-0.995496,0.038653,-0.078275,-0.011600,0.293233,13.572038,-49.125557,,,,,,,
1508436989.935234,-0.032431,-0.089861,-0.865222,-0.095223,0.177539,-0.120658,-0.032294,0.089740,-0.995442,-0.001321,-0.032672,-0.024761,0.433285,13.687042,-49.092602,,,,,,,
1508436989.955226,-0.029366,-0.091467,-0.867419,-0.068179,0.131631,-0.072028,-0.029239,0.091339,-0.995390,0.025455,-0.038758,-0.039674,0.572043,13.777000,-49.066006,,,,,,,
1508436989.975245,-0.028453,-0.091870,-0.867800,0.013728,0.010036,-0.003150,-0.028329,0.091741,-0.995380,0.020639,-0.029485,-0.046719,0.619048,13.807341,-49.056908,,,,,,,
1508436989.995219,-0.028056,-0.091168,-0.867980,0.031772,0.045211,-0.016469,-0.027935,0.091042,-0.995455,-0.035633,-0.032845,-0.011549,0.648403,13.788168,-49.061924,,,,,,,
1508436990.015254,-0.026630,-0.091357,-0.868222,-0.039950,0.068639,-0.003959,-0.026515,0.091230,-0.995477,-0.000187,-0.036725,-0.010215,0.691381,13.775482,-49.064896,,,,,,,
1508436990.035259,-0.026138,-0.092741,-0.867541,-0.072633,-0.023098,0.063506,-0.026023,0.092609,-0.995362,0.009437,-0.042117,-0.017058,0.739638,13.803855,-49.056221,,,,,,,
1508436990.055262,-0.027342,-0.093809,-0.866474,-0.036229,-0.061399,0.035244,-0.027219,0.093672,-0.995231,-0.045260,-0.003386,-0.070489,0.720890,13.898056,-49.029896,,,,,,,
1508436990.075258,-0.028004,-0.093946,-0.866410,0.010472,0.006875,-0.020162,-0.027877,0.093807,-0.995200,-0.059693,-0.002133,-0.095727,0.676193,13.915859,-49.025482,,,,,,,
1508436990.095274,-0.026542,-0.093569,-0.867475,0.011162,0.092173,-0.059787,-0.026423,0.093432,-0.995275,-0.012090,-0.001666,-0.146586,0.701416,13.903939,-49.028507,,,,,,,
1508436990.115276,-0.026455,-0.093958,-0.868136,-0.050336,-0.053832,-0.018170,-0.026336,0.093820,-0.995241,0.028533,-0.046076,-0.259138,0.750916,13.905088,-49.027447,,,,,,,
1508436990.135275,-0.027197,-0.095428,-0.868305,-0.049377,0.011098,0.006479,-0.027070,0.095283,-0.995082,-0.036620,-0.004310,-0.382954,0.704401,13.958798,-49.012875,,,,,,,
1508436990.155288,-0.025309,-0.095410,-0.869005,0.006748,0.111396,-0.083521,-0.025191,0.095265,-0.995133,-0.042863,0.039836,-0.462707,0.714332,13.994316,-49.002602,,,,,,,
1508436990.175291,-0.021549,-0.094053,-0.871413,0.133519,0.272270,-0.111540,-0.021452,0.093914,-0.995349,-0.047075,0.008503,-0.720074,0.808291,13.986555,-49.003357,,,,,,,
1508436990.195277,-0.014672,-0.087753,-0.873316,0.416841,0.365919,-0.101382,-0.014615,0.087640,-0.996045,-0.007205,0.033423,-0.773654,1.095119,13.811806,-49.047333,,,,,,,
1508436990.215302,-0.009432,-0.076799,-0.873720,0.687590,0.171659,0.059045,-0.009404,0.076723,-0.997008,0.060079,-0.009310,-0.823991,1.407218,13.393894,-49.155159,,,,,,,
1508436990.235305,-0.009261,-0.057232,-0.871190,1.113152,-0.046884,0.090685,-0.009246,0.057200,-0.998320,-0.011217,0.088277,-0.964250,1.542771,12.884003,-49.287205,,,,,,,
1508436990.255304,-0.009242,-0.035772,-0.870941,0.970165,0.046071,-0.031048,-0.009236,0.035765,-0.999318,0.006123,0.048601,-0.993236,1.546549,12.115519,-49.481602,,,,,,,
1508436990.275317,-0.005428,-0.017419,-0.871566,1.013128,0.358165,-0.027075,-0.005427,0.017418,-0.999834,0.044901,0.236015,-0.863417,1.593756,10.612963,-49.824001,,,,,,,
1508436990.295303,0.009592,0.016731,-0.869489,2.186493,0.784556,0.210044,0.009590,-0.016730,-0.999814,-0.066444,0.474768,-0.755801,-0.990866,5.789214,-50.925865,,,,,,,
1508436990.315303,0.018178,0.075513,-0.864332,3.334869,0.143787,0.348563,0.018125,-0.075441,-0.996986,0.184832,0.389894,-0.475045,-0.785097,5.232824,-50.989620,,,,,,,
1508436990.335313,0.009275,0.146519,-0.856009,3.623425,-0.606600,0.544766,0.009176,-0.145995,-0.989243,0.124369,0.248854,-0.071930,-0.431300,0.435760,-51.259773,,,,,,,
1508436990.355334,-0.002235,0.217794,-0.843875,3.477006,-0.265760,0.580452,-0.002182,-0.216076,-0.976374,-0.135696,0.293225,0.338145,-1.150688,-4.139604,-51.083073,,,,,,,
1508436990.375331,0.001748,0.285250,-0.836440,3.298942,0.585038,0.231296,0.001678,-0.281398,-0.959590,-0.180129,0.373378,0.640666,-1.216006,-6.757560,-50.801548,,,,,,,
1508436990.395345,0.016840,0.348623,-0.832143,3.085394,0.847035,0.283104,0.015826,-0.341604,-0.939711,-0.039141,0.252401,0.821867,-0.609713,-10.063915,-50.262177,,,,,,,
1508436990.415349,0.023815,0.407147,-0.825521,2.810503,0.213117,0.385218,0.021866,-0.395992,-0.917994,0.090438,0.275233,0.901453,0.140159,-13.823589,-49.364246,,,,,,,
1508436990.435329,0.018780,0.459425,-0.820997,2.473177,-0.302998,0.165833,0.016831,-0.443433,-0.896150,0.011275,0.358548,0.952256,0.096117,-15.836731,-48.755814,,,,,,,
1508436990.455359,0.014216,0.503905,-0.819776,2.047515,-0.085457,0.102219,0.012449,-0.482849,-0.875615,-0.005384,0.374237,0.989964,-0.152294,-17.635843,-48.134129,,,,,,,
1508436990.475362,0.013057,0.538879,-0.815625,1.577708,0.110339,0.265008,0.011206,-0.513174,-0.858211,0.061441,0.244437,0.931057,-0.331724,-20.469154,-46.998344,,,,,,,
1508436990.495357,0.010723,0.565404,-0.809125,1.157509,-0.008851,0.259588,0.009054,-0.535757,-0.844324,0.031519,0.264989,0.796030,-0.353853,-21.505394,-46.533142,,,,,,,
1508436990.515374,0.008767,0.582158,-0.806671,0.627106,-0.011464,0.033968,0.007323,-0.549828,-0.835246,0.011918,0.253563,0.744685,-0.439024,-22.308123,-46.152958,,,,,,,
1508436990.535376,0.012056,0.588902,-0.807772,0.199071,0.234930,-0.074848,0.010025,-0.555448,-0.831491,-0.066559,0.119840,0.548959,-0.407424,-23.102631,-45.760715,,,,,,,
1508436990.555356,0.020225,0.589483,-0.810231,-0.062563,0.373556,-0.115049,0.016811,-0.555931,-0.831058,-0.017558,0.114113,0.400959,-0.179652,-23.191776,-45.717064,,,,,,,
1508436990.575388,0.028684,0.586945,-0.812697,-0.127586,0.321317,-0.085453,0.023880,-0.553820,-0.832294,0.009094,0.087985,0.341022,0.113597,-23.152336,-45.737263,,,,,,,
1508436990.595390,0.033713,0.584606,-0.814213,-0.130262,0.148734,-0.077616,0.028109,-0.551871,-0.833456,-0.003878,0.088827,0.224066,0.566158,-22.986660,-45.817394,,,,,,,
1508436990.615382,0.037911,0.580258,-0.816808,-0.267435,0.168034,-0.123644,0.031698,-0.548240,-0.835720,-0.014196,0.029410,0.206997,0.736659,-22.821056,-45.897682,,,,,,,
1508436990.635396,0.043604,0.572556,-0.818953,-0.459217,0.270307,-0.104724,0.036638,-0.541782,-0.839720,-0.020296,0.035770,0.207090,0.905700,-22.605976,-46.000977,,,,,,,
1508436990.655405,0.052019,0.561292,-0.820997,-0.593376,0.408816,-0.102367,0.044018,-0.532281,-0.845423,-0.003246,0.033959,0.192179,1.045167,-22.406523,-46.095505,,,,,,,
1508436990.675410,0.059600,0.550027,-0.821612,-0.516954,0.329838,-0.036234,0.050779,-0.522711,-0.850997,0.024553,0.065557,0.166426,1.628084,-21.614101,-46.455574,,,,,,,
1508436990.695416,0.064272,0.541135,-0.821124,-0.420031,0.168876,0.007613,0.055051,-0.515109,-0.855355,0.013873,0.067874,0.179559,1.937107,-21.147488,-46.658031,,,,,,,
1508436990.715396,0.065433,0.532309,-0.820944,-0.477538,0.015605,-0.046635,0.056340,-0.507524,-0.859794,-0.002262,0.062959,0.236274,2.086872,-20.647757,-46.874893,,,,,,,
1508436990.735408,0.066843,0.519720,-0.821428,-0.743295,0.133933,-0.056682,0.057974,-0.496637,-0.866020,-0.031653,0.068414,0.298927,2.138275,-20.118732,-47.102066,,,,,,,
1508436990.755420,0.074007,0.502326,-0.821402,-0.900685,0.499398,-0.082124,0.064806,-0.481465,-0.874066,-0.048677,0.086904,0.315106,2.231936,-19.750296,-47.253410,,,,,,,
1508436990.775434,0.087518,0.485500,-0.824064,-0.743241,0.625396,-0.252545,0.077306,-0.466651,-0.881056,-0.000341,0.263114,0.327605,3.018745,-18.499552,-47.713669,,,,,,,
1508436990.795435,0.100439,0.473656,-0.829904,-0.491367,0.423055,-0.310579,0.089231,-0.456143,-0.885422,0.025805,0.242352,0.361328,3.664748,-17.878742,-47.904701,,,,,,,
1508436990.815445,0.104726,0.462129,-0.831745,-0.644378,0.026225,-0.009343,0.093569,-0.445854,-0.890201,0.032132,0.159279,0.406361,3.896379,-17.631556,-47.977985,,,,,,,
1508436990.835448,0.101966,0.447044,-0.825519,-0.842485,0.051225,0.298604,0.091787,-0.432302,-0.897045,-0.070485,0.147985,0.519787,3.952688,-16.663364,-48.318207,,,,,,,
1508436990.855434,0.102595,0.429537,-0.817855,-0.939989,0.310368,0.164830,0.093112,-0.416450,-0.904378,-0.124316,0.302009,0.557744,3.951174,-16.049442,-48.525707,,,,,,,
1508436990.875459,0.108992,0.409326,-0.817352,-1.070682,0.264364,-0.252395,0.099790,-0.397992,-0.911946,-0.043104,0.275494,0.543782,4.222776,-15.134579,-48.796036,,,,,,,
1508436990.895462,0.113963,0.383770,-0.823373,-1.355084,0.011226,-0.410588,0.105444,-0.374419,-0.921245,-0.019583,0.136534,0.536464,4.610472,-13.704680,-49.181969,,,,,,,
1508436990.915462,0.106991,0.348402,-0.822013,-2.097934,-0.489109,0.053602,0.100372,-0.341396,-0.934545,-0.005187,-0.052738,0.476674,4.571814,-12.582024,-49.484661,,,,,,,
1508436990.935473,0.090776,0.293022,-0.809011,-3.235720,-0.651570,0.469470,0.086788,-0.288847,-0.953433,-0.024547,-0.162660,0.440891,4.203795,-11.013048,-49.889690,,,,,,,
1508436990.955455,0.071581,0.217972,-0.797770,-3.941975,-0.865517,-0.058982,0.069828,-0.216250,-0.973838,-0.049870,0.162310,-0.007806,3.056638,-6.067851,-50.811207,,,,,,,
1508436990.975471,0.057359,0.133748,-0.803170,-4.258352,-0.561708,-0.661345,0.056815,-0.133350,-0.989439,-0.170951,0.202030,-0.661272,2.211252,-1.782166,-51.184711,,,,,,,
1508436990.995487,0.053080,0.051732,-0.807197,-3.906492,-0.087448,-0.287817,0.052984,-0.051709,-0.997256,-0.063375,0.219647,-0.857374,1.896346,1.474648,-51.207127,,,,,,,
1508436991.015490,0.051549,-0.018132,-0.809112,-3.166900,-0.163238,-0.301135,0.051518,0.018131,-0.998507,0.228175,0.337841,-1.199964,1.821379,3.513062,-51.110485,,,,,,,
1508436991.035487,0.046343,-0.067884,-0.813009,-2.016339,-0.247679,-0.301840,0.046220,0.067832,-0.996626,0.215483,0.361977,-1.298266,1.712329,7.072369,-50.744358,,,,,,,
1508436991.055502,0.044487,-0.094393,-0.816727,-0.957534,0.047995,-0.203491,0.044274,0.094253,-0.994563,0.160514,0.214433,-1.138997,1.295328,10.374400,-50.186001,,,,,,,
1508436991.075505,0.045875,-0.106411,-0.817149,-0.463369,0.030325,0.048041,0.045600,0.106211,-0.993298,0.231576,-0.004969,-0.960056,1.327065,11.397653,-49.962715,,,,,,,
1508436991.095485,0.044336,-0.111842,-0.813055,-0.131366,-0.186441,0.268461,0.044045,0.111609,-0.992776,0.157341,-0.010825,-0.746070,1.332071,11.696733,-49.893414,,,,,,,
1508436991.115502,0.039181,-0.107766,-0.808543,0.362988,-0.293949,0.166218,0.038944,0.107557,-0.993436,-0.006610,0.001574,-0.423800,1.182236,11.747797,-49.885189,,,,,,,
1508436991.135515,0.035230,-0.098798,-0.807334,0.425268,-0.147767,0.036095,0.035051,0.098638,-0.994506,-0.122163,-0.190282,-0.147950,0.903997,11.248117,-50.006035,,,,,,,
1508436991.155513,0.034643,-0.094917,-0.807665,0.024255,0.043162,-0.039947,0.034480,0.094775,-0.994901,-0.163508,-0.264178,0.027372,0.831783,10.988184,-50.065044,,,,,,,
1508436991.175528,0.037736,-0.098272,-0.810681,-0.209208,0.250275,-0.240042,0.037545,0.098114,-0.994467,-0.136696,-0.087326,0.082754,0.885725,11.007752,-50.059818,,,,,,,
1508436991.195534,0.042448,-0.101198,-0.817569,-0.070507,0.231351,-0.382756,0.042218,0.101026,-0.993988,-0.048154,-0.003888,0.061599,1.129837,11.232344,-50.004982,,,,,,,
1508436991.215541,0.044024,-0.102057,-0.824215,-0.034409,0.066047,-0.290816,0.043781,0.101880,-0.993833,0.012875,-0.052685,0.067182,1.200776,11.271759,-49.994461,,,,,,,
1508436991.235545,0.044322,-0.104745,-0.829180,-0.182827,0.015912,-0.237729,0.044064,0.104553,-0.993543,0.026599,-0.022522,0.054166,1.202218,11.333576,-49.980450,,,,,,,
1508436991.255522,0.044412,-0.109981,-0.833200,-0.273729,0.049928,-0.190171,0.044129,0.109759,-0.992978,0.030380,0.013837,0.027906,1.162784,11.605839,-49.918861,,,,,,,
1508436991.275539,0.045437,-0.114621,-0.836427,-0.177470,0.085021,-0.172625,0.045123,0.114370,-0.992413,0.045682,0.068018,-0.012348,1.174022,11.804266,-49.872051,,,,,,,
1508436991.295558,0.046482,-0.116308,-0.839138,-0.022973,0.028377,-0.098344,0.046151,0.116046,-0.992171,0.061438,0.027386,-0.052171,1.218380,11.963626,-49.832996,,,,,,,
1508436991.315562,0.045500,-0.116525,-0.840495,-0.022553,-0.076085,-0.063774,0.045176,0.116261,-0.992191,0.062337,-0.021397,-0.030636,1.193174,11.987824,-49.827793,,,,,,,
1508436991.335550,0.044459,-0.117562,-0.841581,-0.047268,-0.021787,-0.046416,0.044137,0.117291,-0.992116,0.042945,-0.006070,-0.007899,1.131814,12.018074,-49.821938,,,,,,,
1508436991.355573,0.044410,-0.117887,-0.842957,-0.001526,0.019837,-0.091839,0.044088,0.117614,-0.992080,0.071940,0.018373,0.010803,1.102990,12.057036,-49.813168,,,,,,,
1508436991.375576,0.044913,-0.118392,-0.844495,-0.041030,0.038932,-0.047301,0.044584,0.118116,-0.991998,0.089541,-0.040372,0.016290,1.108868,12.071975,-49.809422,,,,,,,
1508436991.395570,0.045481,-0.119873,-0.844464,-0.081419,0.010065,0.010728,0.045140,0.119587,-0.991797,0.114879,-0.023304,0.019400,1.132955,12.114988,-49.798431,,,,,,,
1508436991.415588,0.073741,-0.122142,-0.840774,-0.032178,0.032517,0.020966,0.073126,0.121839,-0.989852,0.108546,0.002032,0.026306,2.557281,12.254742,-49.711388,,,,,,,
1508436991.435590,0.074300,-0.122202,-0.839367,0.002488,-0.029424,0.095413,0.073678,0.121898,-0.989804,0.159659,-0.026943,0.024503,2.607923,12.279627,-49.702618,,,,,,,
1508436991.455592,0.072570,-0.121329,-0.837133,0.040290,-0.113649,0.126463,0.071973,0.121032,-0.990036,0.143618,-0.046172,0.035355,2.555383,12.248335,-49.713062,,,,,,,
1508436991.475601,0.072493,-0.121751,-0.834389,-0.092894,0.060007,0.131508,0.071893,0.121450,-0.989990,0.159430,-0.063711,0.048462,2.515574,12.228729,-49.719921,,,,,,,
1508436991.495605,0.076083,-0.125207,-0.831300,-0.222746,0.210195,0.152886,0.075414,0.124880,-0.989302,0.235575,-0.051653,0.047758,2.547394,12.260612,-49.710449,,,,,,,
1508436991.515590,0.080953,-0.128793,-0.826122,-0.155721,0.164038,0.320915,0.080195,0.128437,-0.988470,0.329152,-0.041675,-0.001978,2.882185,12.541969,-49.621895,,,,,,,
1508436991.535616,0.083467,-0.129336,-0.816119,-0.021611,-0.003808,0.606885,0.082673,0.128975,-0.988196,0.359755,-0.032326,-0.022409,3.115178,12.656060,-49.578827,,,,,,,
1508436991.555597,0.083117,-0.127746,-0.801469,0.027393,-0.127687,0.756860,0.082345,0.127398,-0.988428,0.345603,-0.013507,-0.020911,3.254311,12.609161,-49.581841,,,,,,,
1508436991.575618,0.084562,-0.126608,-0.786178,-0.040506,0.049136,0.768209,0.083785,0.126270,-0.988451,0.306413,-0.043369,0.009478,3.376577,12.548834,-49.588970,,,,,,,
1508436991.595628,0.089801,-0.127901,-0.769227,-0.180652,0.176747,0.894419,0.088948,0.127553,-0.987835,0.342204,-0.081013,0.015210,3.511744,12.552353,-49.578690,,,,,,,
1508436991.615634,0.093858,-0.129438,-0.747705,-0.153549,-0.022971,1.151075,0.092936,0.129077,-0.987270,0.358907,-0.043811,-0.046559,4.063514,12.696546,-49.499760,,,,,,,
1508436991.635642,0.093780,-0.128640,-0.720708,-0.035226,-0.283483,1.434135,0.092869,0.128285,-0.987379,0.243785,-0.041280,-0.092241,4.273721,12.705168,-49.479839,,,,,,,
1508436991.655645,0.092635,-0.125786,-0.692482,0.026204,-0.158702,1.352307,0.091772,0.125454,-0.987846,0.188074,-0.017788,-0.062188,4.311464,12.653525,-49.489796,,,,,,,
1508436991.675649,0.096055,-0.122973,-0.666782,0.012326,0.097130,1.265436,0.095183,0.122663,-0.987873,0.014665,-0.015348,-0.031597,4.644656,12.444456,-49.512653,,,,,,,
1508436991.695643,0.100959,-0.121101,-0.641035,-0.062256,0.012951,1.288038,0.100049,0.120805,-0.987622,-0.050336,-0.014085,-0.063389,4.968079,12.355877,-49.503445,,,,,,,
1508436991.715659,0.100891,-0.119792,-0.615972,-0.050151,-0.199918,1.197282,0.099998,0.119506,-0.987785,-0.105797,-0.003646,-0.085244,5.211032,12.300854,-49.492168,,,,,,,
1508436991.735662,0.102323,-0.117931,-0.595040,0.013446,0.089251,0.943526,0.101435,0.117658,-0.987860,-0.378458,0.162783,0.006232,5.427970,12.175660,-49.499805,,,,,,,
1508436991.755659,0.108930,-0.115801,-0.578031,0.008353,0.230108,0.820995,0.107987,0.115542,-0.987415,-0.368744,0.147153,0.034290,5.719504,12.086555,-49.488815,,,,,,,
1508436991.775674,0.111182,-0.113697,-0.561669,0.016749,-0.081997,0.815918,0.110237,0.113453,-0.987409,-0.364006,0.104779,0.015409,6.028700,12.005743,-49.471786,,,,,,,
1508436991.795676,0.113344,-0.111559,-0.546734,0.019940,0.132395,0.675254,0.112398,0.111327,-0.987407,-0.539843,0.136338,0.004863,6.286042,11.827725,-49.482635,,,,,,,
1508436991.815656,0.119433,-0.111076,-0.537465,-0.056500,0.276904,0.333065,0.118415,0.110847,-0.986758,-0.424338,0.146477,-0.016691,6.536167,11.770622,-49.463840,,,,,,,
1508436991.835687,0.124435,-0.111687,-0.532706,-0.048171,0.210056,0.200741,0.123341,0.111455,-0.986086,-0.373631,0.141551,-0.024855,6.795074,11.776949,-49.427429,,,,,,,
1508436991.855691,0.128804,-0.111651,-0.528589,-0.005265,0.182336,0.207508,0.127648,0.111419,-0.985541,-0.320580,0.096833,-0.024285,7.055392,11.800327,-49.385365,,,,,,,
1508436991.875697,0.130997,-0.110362,-0.525635,0.076101,0.057885,0.106887,0.129828,0.110139,-0.985401,-0.251562,0.081710,-0.022702,7.315470,11.766882,-49.355495,,,,,,,
1508436991.895702,0.132034,-0.107899,-0.524759,0.137982,0.048412,0.041934,0.130885,0.107689,-0.985531,-0.246470,0.056785,-0.007160,7.394175,11.669775,-49.366821,,,,,,,
1508436991.915705,0.133658,-0.104866,-0.525691,0.160982,0.099777,-0.078254,0.132528,0.104674,-0.985637,-0.214071,0.058351,0.025035,7.481532,11.487721,-49.396347,,,,,,,
1508436991.935695,0.135137,-0.102900,-0.529020,0.081482,0.095738,-0.179435,0.134014,0.102718,-0.985642,-0.145793,-0.001598,0.044861,7.543954,11.368767,-49.414371,,,,,,,
1508436991.955694,0.136926,-0.103063,-0.532697,-0.020216,0.120245,-0.170117,0.135774,0.102881,-0.985384,-0.122499,-0.024038,0.050020,7.571062,11.348650,-49.414852,,,,,,,
1508436991.975716,0.138414,-0.103982,-0.534915,-0.022956,0.049779,-0.089121,0.137227,0.103795,-0.985087,-0.091649,-0.014836,0.021357,7.674316,11.405167,-49.385902,,,,,,,
1508436991.995723,0.138111,-0.103922,-0.538106,0.055974,-0.012819,-0.224759,0.136929,0.103735,-0.985134,-0.111661,0.066019,0.004864,7.675785,11.421371,-49.381931,,,,,,,
1508436992.015721,0.137853,-0.103612,-0.544271,0.041627,0.029985,-0.320269,0.136680,0.103426,-0.985201,-0.114326,0.063871,0.011782,7.631176,11.407928,-49.391949,,,,,,,
1508436992.035714,0.137395,-0.104723,-0.550717,-0.042792,-0.006217,-0.317548,0.136213,0.104531,-0.985149,-0.092253,-0.015359,-0.016621,7.553024,11.440434,-49.396446,,,,,,,
1508436992.055720,0.135929,-0.106373,-0.555795,-0.027429,-0.044734,-0.234896,0.134745,0.106172,-0.985176,-0.140116,0.022505,-0.016014,7.451767,11.533331,-49.390224,,,,,,,
1508436992.075744,0.134782,-0.106481,-0.561178,0.065482,-0.044644,-0.291481,0.133613,0.106280,-0.985318,-0.157875,0.101621,-0.019320,7.386384,11.563379,-49.393017,,,,,,,
1508436992.095748,0.131457,-0.105415,-0.567701,0.107485,-0.168164,-0.320644,0.130351,0.105220,-0.985869,-0.173518,0.057118,-0.025407,7.194608,11.523541,-49.430618,,,,,,,
1508436992.115748,0.126827,-0.103701,-0.574416,0.134245,-0.186252,-0.334264,0.125807,0.103516,-0.986639,-0.246108,0.076416,-0.003488,7.000775,11.470266,-49.470825,,,,,,,
1508436992.135759,0.123180,-0.102562,-0.582679,0.082384,-0.129578,-0.436345,0.122223,0.102382,-0.987208,-0.261811,0.085041,0.009715,6.806118,11.407366,-49.512516,,,,,,,
1508436992.155763,0.118767,-0.102807,-0.592142,0.034362,-0.229596,-0.487108,0.117863,0.102626,-0.987713,-0.281757,0.075963,-0.018299,6.444276,11.383635,-49.566368,,,,,,,
1508436992.175753,0.111660,-0.103058,-0.603879,0.063986,-0.295320,-0.651454,0.110837,0.102875,-0.988500,-0.336560,0.107650,-0.014949,6.155191,11.400232,-49.599281,,,,,,,
1508436992.195774,0.104955,-0.103645,-0.618927,0.037615,-0.225775,-0.800658,0.104200,0.103460,-0.989160,-0.362593,0.092173,-0.017019,5.823961,11.411925,-49.636578,,,,,,,
1508436992.215776,0.099882,-0.105017,-0.636630,0.023063,-0.147756,-0.927602,0.099167,0.104824,-0.989534,-0.310791,0.077076,-0.006560,5.234865,11.496162,-49.682743,,,,,,,
1508436992.235774,0.093256,-0.105329,-0.656960,0.125816,-0.299850,-1.057695,0.092605,0.105134,-0.990137,-0.226852,0.087508,-0.007406,4.824859,11.538260,-49.714485,,,,,,,
1508436992.255788,0.082658,-0.104731,-0.679253,0.111178,-0.464869,-1.102208,0.082112,0.104539,-0.991125,-0.162007,0.027388,0.029028,4.375031,11.513063,-49.761925,,,,,,,
1508436992.275791,0.070890,-0.104774,-0.701170,0.069352,-0.439281,-1.107879,0.070442,0.104582,-0.992018,-0.105827,0.042406,0.053679,3.475544,11.498543,-49.836178,,,,,,,
1508436992.295772,0.062836,-0.105149,-0.725579,0.053165,-0.193977,-1.256442,0.062448,0.104955,-0.992514,0.034110,0.023844,0.086310,2.999627,11.504618,-49.865685,,,,,,,
1508436992.315802,0.054898,-0.107415,-0.750169,-0.117330,-0.353869,-1.181487,0.054554,0.107208,-0.992739,0.249050,-0.120804,0.035158,2.499946,11.539406,-49.885193,,,,,,,
1508436992.335783,0.043806,-0.112156,-0.770462,-0.191088,-0.465138,-0.929237,0.043517,0.111921,-0.992764,0.304994,-0.103880,-0.001667,1.689297,11.782301,-49.862450,,,,,,,
1508436992.355800,0.033683,-0.115920,-0.788852,-0.135672,-0.378885,-0.920933,0.033451,0.115660,-0.992725,0.381100,-0.020339,-0.021023,1.048397,11.973533,-49.834484,,,,,,,
1508436992.375814,0.022977,-0.119157,-0.804702,-0.148429,-0.498681,-0.673936,0.022812,0.118875,-0.992647,0.452056,-0.087015,-0.045363,0.747084,12.047957,-49.821976,,,,,,,
1508436992.395819,0.010798,-0.121749,-0.814981,-0.090858,-0.542818,-0.449416,0.010718,0.121449,-0.992540,0.395074,-0.032261,-0.059966,-0.240614,12.257904,-49.775761,,,,,,,
1508436992.415797,0.001714,-0.122931,-0.823243,-0.049557,-0.311777,-0.386738,0.001701,0.122621,-0.992452,0.335320,-0.018816,-0.026225,-0.804745,12.319984,-49.754505,,,,,,,
1508436992.435830,-0.004094,-0.124797,-0.829189,-0.119775,-0.268414,-0.222037,-0.004062,0.124474,-0.992215,0.335040,-0.042809,-0.029148,-0.995162,12.344219,-49.745052,,,,,,,
1508436992.455833,-0.010572,-0.126511,-0.832395,-0.049965,-0.280285,-0.153674,-0.010488,0.126174,-0.991953,0.211629,-0.004318,-0.031164,-1.493743,12.488222,-49.696613,,,,,,,
1508436992.475825,-0.013732,-0.126361,-0.836224,0.021915,-0.038390,-0.206286,-0.013622,0.126025,-0.991934,0.118373,-0.005740,0.011633,-1.693924,12.500814,-49.687027,,,,,,,
1508436992.495845,-0.013339,-0.126178,-0.840165,-0.011480,0.068085,-0.177949,-0.013233,0.125844,-0.991962,0.127277,-0.033559,0.007373,-1.764511,12.480732,-49.689621,,,,,,,
1508436992.515837,-0.013217,-0.126901,-0.842971,-0.044283,0.004068,-0.122614,-0.013110,0.126561,-0.991872,0.078372,-0.059621,-0.024928,-1.762457,12.497592,-49.685455,,,,,,,
1508436992.535853,-0.012598,-0.126982,-0.845410,0.031496,0.071157,-0.121511,-0.012496,0.126641,-0.991870,0.020385,-0.000649,-0.003095,-1.770313,12.519970,-49.679543,,,,,,,
1508436992.555859,-0.011383,-0.125601,-0.847787,0.071172,0.059399,-0.106442,-0.011293,0.125271,-0.992058,0.012575,-0.001370,0.012795,-1.740735,12.493795,-49.687176,,,,,,,
1508436992.575862,-0.011583,-0.125163,-0.849039,-0.017139,-0.042965,-0.044113,-0.011493,0.124836,-0.992111,-0.011182,-0.058979,0.015976,-1.711895,12.410397,-49.709072,,,,,,,
1508436992.595867,-0.012408,-0.126815,-0.850252,-0.110474,0.006118,-0.073544,-0.012308,0.126475,-0.991893,-0.062475,-0.035060,0.028270,-1.759146,12.444279,-49.698952,,,,,,,
1508436992.615874,-0.010806,-0.129112,-0.852105,-0.113060,0.132925,-0.095641,-0.010716,0.128753,-0.991619,-0.073894,-0.030242,0.025219,-1.767310,12.523106,-49.678860,,,,,,,
1508436992.635879,-0.008700,-0.131029,-0.853823,-0.085007,0.076421,-0.075649,-0.008625,0.130655,-0.991390,-0.013637,-0.016290,-0.056110,-1.674650,12.632701,-49.654312,,,,,,,
1508436992.655864,-0.008224,-0.132366,-0.855597,-0.062471,0.032780,-0.095293,-0.008152,0.131979,-0.991219,-0.033657,-0.004172,-0.088722,-1.600507,12.734182,-49.630833,,,,,,,
1508436992.675888,-0.006728,-0.133288,-0.857706,-0.042479,0.130807,-0.110592,-0.006669,0.132893,-0.991108,-0.035140,-0.005086,-0.088833,-1.580453,12.788651,-49.617466,,,,,,,
1508436992.695891,-0.004024,-0.134688,-0.860172,-0.084318,0.159592,-0.117376,-0.003988,0.134282,-0.990935,0.024221,-0.017933,-0.166719,-1.449045,12.854223,-49.604530,,,,,,,
1508436992.715877,-0.001722,-0.136168,-0.861665,-0.063581,0.093413,-0.052453,-0.001706,0.135748,-0.990742,0.043057,0.010874,-0.270183,-1.331628,12.930466,-49.588005,,,,,,,
1508436992.735904,-0.000342,-0.135954,-0.862273,0.068244,0.066670,-0.012711,-0.000338,0.135536,-0.990772,0.023089,0.034584,-0.375027,-1.279512,12.958786,-49.581985,,,,,,,
1508436992.755887,0.001891,-0.133309,-0.862885,0.159869,0.156210,-0.054598,0.001874,0.132914,-0.991126,0.004550,0.027730,-0.481332,-1.175344,12.842562,-49.614792,,,,,,,
1508436992.775905,0.005543,-0.129171,-0.865604,0.266304,0.201193,-0.189684,0.005497,0.128812,-0.991654,0.046459,0.086032,-0.644409,-1.055504,12.715336,-49.650246,,,,,,,
1508436992.795917,0.006969,-0.120257,-0.869726,0.573091,-0.026890,-0.166347,0.006919,0.119967,-0.992754,0.134332,0.110303,-0.761992,-0.918740,12.410051,-49.730141,,,,,,,
1508436992.815920,0.003229,-0.104204,-0.869423,0.948303,-0.250297,0.173563,0.003211,0.104015,-0.994571,0.076562,0.024891,-0.752317,-1.059778,11.580883,-49.926952,,,,,,,
1508436992.835902,-0.002514,-0.081279,-0.862091,1.243412,-0.268965,0.416729,-0.002506,0.081190,-0.996696,-0.045987,0.042864,-0.727914,-1.246100,10.808777,-50.095493,,,,,,,
1508436992.855930,-0.001949,-0.055120,-0.854614,1.318831,0.166905,0.312251,-0.001946,0.055092,-0.998479,-0.102317,0.095131,-0.719813,-1.376315,9.884796,-50.282574,,,,,,,
1508436992.875926,0.003981,-0.030161,-0.851298,1.179628,0.323962,0.095751,0.003979,0.030157,-0.999537,-0.099163,0.025156,-0.735769,1.766418,13.156967,-48.056637,,,,,,,
1508436992.895930,0.008370,-0.007294,-0.849833,1.177921,0.173770,0.092599,0.008370,0.007293,-0.999938,-0.119957,-0.007995,-0.594407,2.144050,11.717851,-48.412411,,,,,,,
1508436992.915945,0.011645,0.019260,-0.847261,1.414543,0.217221,0.174963,0.011643,-0.019258,-0.999747,-0.160294,0.068117,-0.498148,2.283780,10.853349,-48.607155,,,,,,,
1508436992.935948,0.017879,0.050768,-0.843054,1.644575,0.332019,0.270159,0.017855,-0.050746,-0.998552,-0.125841,0.147776,-0.187651,2.694328,8.713085,-49.015194,,,,,,,
1508436992.955928,0.024561,0.086984,-0.837747,1.922843,0.362753,0.314289,0.024466,-0.086874,-0.995919,-0.092856,0.197348,-0.010353,2.980838,7.447771,-49.206825,,,,,,,
1508436992.975960,0.030791,0.130748,-0.831781,2.370355,0.360375,0.382231,0.030523,-0.130375,-0.990995,-0.089224,0.290394,0.059537,3.275384,6.010131,-49.384373,,,,,,,
1508436992.995963,0.035030,0.185803,-0.826154,2.928442,0.130203,0.353162,0.034420,-0.184735,-0.982185,0.066944,0.338971,0.461113,3.798015,2.318258,-49.657494,,,,,,,
1508436993.015956,0.028707,0.245701,-0.820561,2.911160,-0.497293,0.392131,0.027841,-0.243237,-0.969567,0.125266,0.185711,0.674890,3.792637,0.071568,-49.711937,,,,,,,
1508436993.035974,0.014573,0.298396,-0.813566,2.430925,-0.569613,0.394606,0.013929,-0.293987,-0.955708,0.107211,0.146069,0.768605,3.260706,-2.792775,-49.671265,,,,,,,
1508436993.055978,0.005877,0.340960,-0.806051,1.947964,-0.146481,0.337650,0.005539,-0.334392,-0.942418,-0.076340,0.155467,0.902943,2.821527,-4.622203,-49.561481,,,,,,,
1508436993.075984,0.005685,0.373925,-0.801008,1.469365,0.189409,0.226508,0.005292,-0.365272,-0.930886,0.013934,0.188056,0.864800,2.579571,-7.049877,-49.288044,,,,,,,
1508436993.095988,0.007013,0.400006,-0.795398,1.237573,0.100960,0.272749,0.006459,-0.389424,-0.921036,0.053416,0.193150,0.779282,2.723559,-8.476621,-49.055023,,,,,,,
1508436993.115992,0.003842,0.422813,-0.791705,1.061227,-0.164952,0.096533,0.003504,-0.410327,-0.911932,0.084692,0.225940,0.737707,2.764402,-9.099469,-48.941025,,,,,,,
1508436993.135982,0.000690,0.439981,-0.790402,0.720583,-0.060439,0.079278,0.000625,-0.425922,-0.904759,-0.024291,0.087681,0.640660,2.527031,-10.883821,-48.588299,,,,,,,
1508436993.155998,0.001893,0.449162,-0.788194,0.318508,0.214486,0.081990,0.001705,-0.434211,-0.900810,-0.056683,0.074684,0.588264,2.503480,-11.209805,-48.515347,,,,,,,
1508436993.176006,0.009116,0.453096,-0.788038,0.148497,0.409691,-0.030542,0.008196,-0.437751,-0.899059,-0.040651,0.106102,0.430339,2.839845,-11.665450,-48.389240,,,,,,,
1508436993.196010,0.016777,0.455366,-0.789498,0.100534,0.295814,-0.075772,0.015067,-0.439791,-0.897974,-0.005286,0.028490,0.311533,3.219339,-11.784438,-48.336624,,,,,,,
1508436993.216018,0.021551,0.455640,-0.791531,-0.056481,0.167020,-0.105775,0.019351,-0.440037,-0.897771,-0.015429,0.008198,0.264165,3.359476,-11.824814,-48.317223,,,,,,,
1508436993.236020,0.027255,0.451914,-0.794435,-0.247358,0.258761,-0.147482,0.024516,-0.436688,-0.899279,-0.064784,0.006085,0.199877,3.678887,-11.692050,-48.326267,,,,,,,
1508436993.256007,0.034484,0.445377,-0.797455,-0.358705,0.294978,-0.132996,0.031114,-0.430798,-0.901912,-0.028642,-0.000888,0.162868,3.908902,-11.480396,-48.358944,,,,,,,
1508436993.276031,0.040401,0.437831,-0.799313,-0.365815,0.223505,-0.080771,0.036580,-0.423976,-0.904934,-0.010869,-0.005757,0.149624,4.145012,-11.213311,-48.401932,,,,,,,
1508436993.296035,0.043724,0.430373,-0.799738,-0.399421,0.093400,-0.003152,0.039725,-0.417210,-0.907941,-0.015692,-0.010539,0.086240,4.476801,-10.669313,-48.495258,,,,,,,
1508436993.316021,0.045124,0.421725,-0.798990,-0.436889,0.126381,0.021989,0.041157,-0.409335,-0.911455,-0.041202,0.007785,0.091265,4.528021,-10.364684,-48.556530,,,,,,,
1508436993.336046,0.047865,0.413374,-0.797519,-0.403750,0.173178,0.054341,0.043817,-0.401702,-0.914722,-0.061044,0.038527,0.106876,4.615033,-10.048031,-48.614861,,,,,,,
1508436993.356049,0.050194,0.406420,-0.796953,-0.305335,0.096615,-0.024595,0.046086,-0.395324,-0.917385,0.009456,0.068862,0.237240,4.830314,-9.484854,-48.706997,,,,,,,
1508436993.375993,0.052381,0.401983,-0.797125,-0.175847,0.125285,0.004748,0.048183,-0.391244,-0.919025,-0.042004,0.080102,0.344043,4.903346,-9.284455,-48.738304,,,,,,,
1508436993.395999,0.053585,0.397241,-0.796284,-0.338174,0.029430,0.016923,0.049388,-0.386875,-0.920808,-0.050991,0.075520,0.368059,4.990325,-9.151423,-48.754635,,,,,,,
1508436993.416003,0.055570,0.385260,-0.795944,-0.751831,0.209657,-0.022750,0.051471,-0.375800,-0.925270,-0.054324,0.059440,0.436516,5.039305,-8.854926,-48.804321,,,,,,,
1508436993.435999,0.064966,0.366910,-0.795337,-0.967239,0.647585,-0.054530,0.060600,-0.358733,-0.931471,-0.076026,0.197829,0.431395,5.320755,-7.947091,-48.930557,,,,,,,
1508436993.456013,0.083266,0.349929,-0.799054,-0.703683,0.908083,-0.378396,0.078130,-0.342832,-0.936142,-0.019002,0.363019,0.418000,6.015162,-7.018517,-48.992088,,,,,,,
1508436993.476017,0.101753,0.338601,-0.809509,-0.478539,0.562189,-0.560152,0.095810,-0.332168,-0.938342,0.069275,0.276977,0.467761,6.478783,-6.629111,-48.987206,,,,,,,
1508436993.495997,0.106713,0.325847,-0.814514,-0.716032,-0.041590,-0.101238,0.100906,-0.320112,-0.941991,0.144593,-0.035861,0.570790,7.457654,-5.749736,-48.959064,,,,,,,
1508436993.516027,0.102024,0.307419,-0.810473,-1.068209,-0.111196,0.126092,0.097072,-0.302600,-0.948162,0.079427,-0.025006,0.616176,7.383562,-4.994815,-49.053043,,,,,,,
1508436993.536008,0.106053,0.285141,-0.805622,-1.131906,0.474638,0.156030,0.101580,-0.281293,-0.954230,-0.186083,0.133924,0.631202,7.444345,-3.677431,-49.160191,,,,,,,
1508436993.556037,0.110750,0.259664,-0.795939,-1.506746,0.151433,0.423309,0.106819,-0.256756,-0.960555,0.013695,-0.033558,0.556533,7.866930,-2.514155,-49.167641,,,,,,,
1508436993.576022,0.096077,0.219685,-0.778509,-2.495214,-1.007986,0.770352,0.093623,-0.217922,-0.971465,0.118123,-0.185368,0.496780,7.872658,-1.762320,-49.199409,,,,,,,
1508436993.596045,0.065521,0.155206,-0.760989,-3.783203,-1.242218,0.338598,0.064688,-0.154584,-0.985860,-0.147314,0.012113,0.112096,6.337586,2.024652,-49.410545,,,,,,,
1508436993.616053,0.054384,0.065551,-0.758173,-4.778316,-0.153077,-0.306635,0.054240,-0.065504,-0.996377,-0.321772,0.107572,-0.431693,5.536752,6.196971,-49.159008,,,,,,,
1508436993.636057,0.061491,-0.030193,-0.760021,-4.557936,0.536170,-0.355183,0.061424,0.030188,-0.997655,-0.204628,0.136285,-0.731654,5.497151,8.580144,-48.803982,,,,,,,
1508436993.656060,0.067723,-0.098260,-0.761650,-2.507271,0.098782,-0.290665,0.067344,0.098102,-0.992895,0.221978,0.700604,-1.449228,5.977565,14.717150,-47.258232,,,,,,,
1508436993.676049,0.062821,-0.122375,-0.762973,-0.609773,-0.409311,-0.006416,0.062310,0.122070,-0.990564,0.223701,0.665756,-1.417746,5.886439,16.095657,-46.818222,,,,,,,
1508436993.696070,0.054100,-0.128813,-0.758321,-0.293072,-0.414279,0.307978,0.053626,0.128457,-0.990264,0.221841,0.149039,-1.168244,5.605742,16.554470,-46.692520,,,,,,,
1508436993.716074,0.051391,-0.136317,-0.752083,-0.443256,-0.023122,0.218180,0.050892,0.135895,-0.989415,-0.061024,0.014297,-0.771312,5.266026,16.984016,-46.577660,,,,,,,
1508436993.736068,0.053550,-0.140699,-0.750655,-0.023993,0.146619,-0.019183,0.052995,0.140235,-0.988699,-0.092729,0.064675,-0.608149,5.327359,17.237621,-46.477409,,,,,,,
1508436993.756084,0.055668,-0.135931,-0.753025,0.347157,0.075384,-0.133589,0.055126,0.135513,-0.989241,-0.093486,-0.079513,-0.370989,5.447000,17.209843,-46.473843,,,,,,,
1508436993.776090,0.055096,-0.130328,-0.754989,0.196983,-0.058987,-0.038759,0.054601,0.129960,-0.990015,-0.097128,-0.242890,-0.116049,5.443479,16.854343,-46.604355,,,,,,,
1508436993.796083,0.054232,-0.129690,-0.755515,-0.047268,0.023119,-0.049363,0.053750,0.129327,-0.990144,-0.141641,-0.146234,0.047059,5.389812,16.767879,-46.641762,,,,,,,
1508436993.816100,0.056299,-0.131825,-0.759020,-0.105160,0.182290,-0.268087,0.055781,0.131444,-0.989753,-0.139613,-0.061925,0.058051,5.401996,16.828472,-46.618530,,,,,,,
1508436993.836103,0.059395,-0.134034,-0.765205,-0.079584,0.177032,-0.305351,0.058827,0.133633,-0.989283,-0.048299,-0.038190,0.009776,5.499584,16.984367,-46.550533,,,,,,,
1508436993.856084,0.059767,-0.135426,-0.770782,-0.051170,0.012912,-0.272069,0.059185,0.135013,-0.989075,0.033665,0.011121,0.007553,5.509898,17.053501,-46.524029,,,,,,,
1508436993.876114,0.059353,-0.136541,-0.775334,-0.035911,0.003168,-0.195166,0.058766,0.136117,-0.988948,0.022899,0.029349,-0.002843,5.435599,17.127117,-46.505726,,,,,,,
1508436993.896118,0.059634,-0.137195,-0.778336,-0.015436,0.037100,-0.119966,0.059039,0.136765,-0.988843,0.032682,0.025802,-0.021549,5.402773,17.155499,-46.499088,,,,,,,
1508436993.916097,0.059563,-0.136936,-0.780297,0.052172,-0.000252,-0.093884,0.058971,0.136509,-0.988882,0.047535,0.034741,-0.043543,5.374017,17.199837,-46.486038,,,,,,,
1508436993.936129,0.058948,-0.134116,-0.782924,0.198607,-0.002315,-0.146213,0.058385,0.133714,-0.989299,0.021907,0.054411,-0.030919,5.334009,17.141266,-46.512272,,,,,,,
1508436993.956123,0.058884,-0.130557,-0.786086,0.163310,0.013635,-0.127224,0.058349,0.130187,-0.989771,0.023621,-0.045729,-0.003530,5.280036,16.937719,-46.592930,,,,,,,
1508436993.976115,0.058675,-0.128547,-0.788121,0.084276,0.006119,-0.087603,0.058157,0.128194,-0.990043,0.017084,-0.040028,0.028205,5.255702,16.849850,-46.627529,,,,,,,
1508436993.996142,0.059274,-0.126932,-0.789982,0.084136,0.057243,-0.084079,0.058763,0.126591,-0.990213,0.000197,-0.002140,0.041666,5.240574,16.778028,-46.655121,,,,,,,
1508436994.016146,0.059575,-0.125435,-0.791691,0.083229,0.001851,-0.084341,0.059072,0.125107,-0.990383,0.025461,-0.014419,0.035992,5.256596,16.693974,-46.683464,,,,,,,
1508436994.036127,0.063757,-0.124014,-0.793819,0.061480,0.052057,-0.145833,0.063224,0.123696,-0.990304,0.008568,-0.005730,0.049676,5.238251,16.643204,-46.703648,,,,,,,
1508436994.056157,0.080070,-0.118880,-0.794536,-0.014444,0.088251,-0.102583,0.079420,0.118601,-0.989761,0.054613,-0.026254,0.056503,5.436584,16.605072,-46.694553,,,,,,,
1508436994.076161,0.080918,-0.119926,-0.795970,-0.051532,0.023175,-0.049363,0.080249,0.119638,-0.989569,0.102826,-0.014322,0.041693,6.205585,16.414776,-46.665962,,,,,,,
1508436994.096145,0.080288,-0.120686,-0.795920,-0.034004,-0.039814,0.018714,0.079619,0.120394,-0.989528,0.108400,-0.027010,0.019207,6.184827,16.456623,-46.653976,,,,,,,
1508436994.116172,0.081154,-0.121104,-0.794537,-0.024445,0.075064,0.101279,0.080471,0.120808,-0.989409,0.115543,-0.026829,0.026137,6.186456,16.474463,-46.647465,,,,,,,
1508436994.136175,0.082841,-0.121167,-0.792651,-0.006355,0.074058,0.069291,0.082140,0.120871,-0.989264,0.190855,-0.023810,0.033087,6.307398,16.479387,-46.629524,,,,,,,
1508436994.156157,0.085345,-0.120765,-0.790929,0.020314,0.160229,0.122403,0.084621,0.120472,-0.989104,0.211140,-0.044453,0.037443,6.382085,16.471952,-46.621990,,,,,,,
1508436994.176186,0.089291,-0.120475,-0.786199,-0.029322,0.141761,0.308244,0.088526,0.120184,-0.988797,0.233129,-0.067907,0.029950,6.522396,16.447229,-46.611301,,,,,,,
1508436994.196189,0.091314,-0.120766,-0.778008,-0.043430,-0.008697,0.440525,0.090523,0.120472,-0.988581,0.336814,-0.031117,0.018885,6.847494,16.428062,-46.571415,,,,,,,
1508436994.216179,0.091689,-0.119978,-0.768732,0.023165,-0.056717,0.474227,0.090903,0.119690,-0.988641,0.308649,0.000686,0.018838,6.944374,16.401405,-46.566463,,,,,,,
1508436994.236202,0.091166,-0.118950,-0.758298,-0.025647,-0.089919,0.570712,0.090397,0.118670,-0.988810,0.313183,-0.039461,0.006327,7.040615,16.317131,-46.581619,,,,,,,
1508436994.256205,0.092648,-0.118935,-0.743028,-0.079626,0.041578,0.873808,0.091862,0.118655,-0.988677,0.303280,-0.057482,0.022277,7.121641,16.272978,-46.584747,,,,,,,
1508436994.276202,0.095733,-0.117537,-0.723367,0.003287,0.009339,1.004302,0.094927,0.117266,-0.988553,0.283964,0.004499,0.001203,7.495695,16.188681,-46.555424,,,,,,,
1508436994.296216,0.096141,-0.114657,-0.702736,0.061748,-0.156967,1.062118,0.095363,0.114406,-0.988846,0.226491,-0.059688,-0.034500,7.804771,16.020887,-46.562675,,,,,,,
1508436994.316219,0.095484,-0.111768,-0.681638,0.016713,-0.153709,1.036513,0.094744,0.111535,-0.989234,0.147596,-0.048913,-0.032998,7.907581,15.910973,-46.583015,,,,,,,
1508436994.336227,0.095743,-0.109936,-0.661861,-0.009582,-0.017223,0.971642,0.095020,0.109715,-0.989411,0.078579,0.011959,-0.018295,8.187721,15.617872,-46.633781,,,,,,,
1508436994.356210,0.099081,-0.106589,-0.640763,0.131987,0.062292,1.143123,0.098357,0.106387,-0.989448,0.007035,0.015378,-0.079674,8.400227,15.498723,-46.635738,,,,,,,
1508436994.376233,0.101033,-0.100251,-0.617742,0.231933,-0.097493,1.130437,0.100355,0.100083,-0.989905,-0.079145,0.053680,-0.141748,8.966872,15.010952,-46.689751,,,,,,,
1508436994.396235,0.100363,-0.092589,-0.597007,0.282085,-0.121874,1.064642,0.099765,0.092457,-0.990706,-0.216007,0.095638,-0.053895,9.167994,14.567072,-46.791180,,,,,,,
1508436994.416245,0.099717,-0.085368,-0.575848,0.227642,-0.138911,1.075544,0.099189,0.085264,-0.991409,-0.298866,0.078264,-0.041779,9.269293,14.338503,-46.841793,,,,,,,
1508436994.436247,0.099258,-0.080970,-0.556037,0.039698,-0.047000,0.948529,0.098770,0.080882,-0.991818,-0.409561,0.077688,0.049084,9.532465,13.762596,-46.961571,,,,,,,
1508436994.456254,0.103200,-0.081632,-0.537652,-0.202960,0.169417,0.891191,0.102674,0.081541,-0.991367,-0.505583,0.062227,0.046741,9.849426,13.644790,-46.930531,,,,,,,
1508436994.476259,0.106415,-0.083821,-0.523156,-0.138573,0.088072,0.543642,0.105841,0.083723,-0.990852,-0.451804,0.217196,0.002800,10.114977,13.665762,-46.867905,,,,,,,
1508436994.496262,0.109696,-0.083908,-0.515940,0.001718,0.165184,0.318495,0.109091,0.083810,-0.990492,-0.457739,0.155341,-0.003267,10.400143,13.661974,-46.806557,,,,,,,
1508436994.516266,0.112510,-0.083434,-0.508713,-0.045921,0.045790,0.368245,0.111882,0.083337,-0.990221,-0.338140,0.044608,-0.035811,10.626396,13.592968,-46.775818,,,,,,,
1508436994.536274,0.113034,-0.083948,-0.502207,-0.052582,0.024674,0.274722,0.112397,0.083849,-0.990119,-0.360672,0.095411,-0.027596,10.706434,13.578568,-46.761749,,,,,,,
1508436994.556278,0.115851,-0.083485,-0.498819,0.049366,0.115507,0.117648,0.115190,0.083388,-0.989837,-0.303926,0.128404,-0.026963,10.784836,13.570198,-46.746159,,,,,,,
1508436994.576258,0.116269,-0.081683,-0.497372,0.085002,-0.028247,0.086651,0.115620,0.081592,-0.989937,-0.195042,0.035046,0.014091,10.944777,13.488082,-46.732746,,,,,,,
1508436994.596289,0.114946,-0.080191,-0.494724,0.039369,-0.077380,0.158840,0.114324,0.080105,-0.990209,-0.204305,-0.000821,0.018926,10.942099,13.415438,-46.754280,,,,,,,
1508436994.616292,0.113766,-0.079399,-0.493225,0.033384,-0.039773,-0.002713,0.113163,0.079316,-0.990406,-0.195865,0.052489,0.027500,10.907084,13.339047,-46.784306,,,,,,,
1508436994.636298,0.114512,-0.079241,-0.495677,0.008964,0.087307,-0.158085,0.113904,0.079158,-0.990333,-0.182416,0.034734,0.031685,10.870299,13.304337,-46.802750,,,,,,,
1508436994.656303,0.115735,-0.080067,-0.498852,-0.038037,0.055369,-0.161851,0.115107,0.079982,-0.990128,-0.146143,0.010991,0.014130,10.905064,13.337064,-46.785347,,,,,,,
1508436994.676284,0.115533,-0.081284,-0.501884,-0.035588,-0.037329,-0.150912,0.114895,0.081194,-0.990054,-0.148434,0.006025,-0.011777,10.890785,13.428445,-46.762527,,,,,,,
1508436994.696312,0.113691,-0.081131,-0.504664,0.062020,-0.105547,-0.141466,0.113073,0.081042,-0.990276,-0.174077,0.073316,0.012600,10.793722,13.459534,-46.776093,,,,,,,
1508436994.716292,0.110565,-0.080056,-0.508274,0.067448,-0.180027,-0.185174,0.109986,0.079970,-0.990711,-0.173753,0.101731,0.023700,10.723043,13.443282,-46.797016,,,,,,,
1508436994.736295,0.105677,-0.079854,-0.512446,0.009768,-0.253444,-0.220321,0.105145,0.079769,-0.991252,-0.264568,0.082615,-0.001728,10.385947,13.424065,-46.878490,,,,,,,
1508436994.756327,0.101077,-0.080784,-0.517836,-0.029336,-0.158442,-0.313371,0.100576,0.080696,-0.991651,-0.329336,0.133903,-0.007189,10.101255,13.483265,-46.923687,,,,,,,
1508436994.776332,0.098645,-0.081842,-0.525303,0.009709,-0.076241,-0.407361,0.098155,0.081750,-0.991808,-0.343928,0.155737,-0.016829,9.990635,13.530741,-46.933704,,,,,,,
