timestamp(unix),attitude_roll(radians),attitude_pitch(radians),attitude_yaw(radians),rotation_rate_x(radians/s),rotation_rate_y(radians/s),rotation_rate_z(radians/s),gravity_x(G),gravity_y(G),gravity_z(G),user_acc_x(G),user_acc_y(G),user_acc_z(G),magnetic_field_x(microteslas),magnetic_field_y(microteslas),magnetic_field_z(microteslas),latitude(degree),longitude(degree),altitude(meter),speed(m/s),course(degree),timestamp(unix),User Mark
1508076504.785124,-0.037322,0.200512,1.845437,-0.075800,0.079726,-0.076913,-0.036565,-0.199171,-0.979282,0.006536,-0.017565,0.015446,19.234394,7.276566,-68.376343,,,,,,,
1508076504.805153,-0.034839,0.199998,1.843985,-0.057581,0.098847,-0.051613,-0.034137,-0.198668,-0.979472,0.009739,-0.023149,0.014827,19.366632,7.350896,-68.331047,,,,,,,
1508076504.825158,-0.033266,0.198521,1.843015,-0.091672,0.048788,-0.050862,-0.032606,-0.197220,-0.979817,0.014677,-0.026245,0.006688,19.427345,7.400348,-68.308472,,,,,,,
1508076504.845152,-0.032524,0.196769,1.841446,-0.073473,0.011563,-0.082325,-0.031891,-0.195501,-0.980185,0.009796,0.002554,-0.009378,19.503710,7.614878,-68.263115,,,,,,,
1508076504.865171,-0.031464,0.195784,1.840099,-0.024072,-0.005569,-0.042661,-0.030858,-0.194536,-0.980410,0.020878,0.004899,-0.015379,19.552589,7.730835,-68.236092,,,,,,,
1508076504.885155,-0.031785,0.195422,1.839206,-0.022956,-0.026864,-0.047684,-0.031175,-0.194180,-0.980470,0.021928,0.013959,-0.011076,19.541246,7.754167,-68.236702,,,,,,,
1508076504.905180,-0.031342,0.194759,1.838461,-0.036984,0.045515,-0.017801,-0.030745,-0.193530,-0.980613,0.022230,0.011371,-0.012552,19.508537,7.832967,-68.237061,,,,,,,
1508076504.925165,-0.029013,0.193552,1.838415,-0.039143,0.085935,0.013603,-0.028467,-0.192346,-0.980914,0.023599,0.002160,-0.005231,19.651733,7.917848,-68.186150,,,,,,,
1508076504.945183,-0.027628,0.192965,1.838907,-0.024023,0.060327,0.033157,-0.027112,-0.191770,-0.981065,0.017285,-0.006640,0.003770,19.651733,7.917848,-68.186150,,,,,,,
1508076504.965178,-0.026357,0.192881,1.839423,0.011405,0.013465,0.026345,-0.025865,-0.191687,-0.981115,0.009676,-0.001413,0.012106,19.805836,7.962523,-68.136345,,,,,,,
1508076504.985209,-0.026468,0.193350,1.839943,-0.005615,-0.019553,0.026836,-0.025972,-0.192147,-0.981022,0.006822,-0.005668,0.008366,19.883093,7.934023,-68.117165,,,,,,,
1508076505.005211,-0.026685,0.192713,1.840219,-0.060328,0.011383,0.011501,-0.026188,-0.191522,-0.981139,-0.008358,-0.005576,0.005599,19.874447,7.912697,-68.122169,,,,,,,
1508076505.025206,-0.026741,0.191736,1.840852,-0.039021,0.063533,0.029923,-0.026248,-0.190563,-0.981324,-0.013303,-0.002674,0.007401,19.896555,7.992829,-68.106361,,,,,,,
1508076505.045228,-0.025954,0.191777,1.841555,-0.001548,0.060320,0.033140,-0.025476,-0.190603,-0.981336,-0.012626,-0.010233,0.006758,19.935881,8.010349,-68.092796,,,,,,,
1508076505.065232,-0.025804,0.192687,1.842210,0.047773,0.017714,0.024125,-0.025323,-0.191497,-0.981166,-0.012518,-0.007127,0.009380,19.975075,7.976013,-68.085342,,,,,,,
1508076505.085234,-0.027405,0.194398,1.842921,0.002841,-0.002487,0.007392,-0.026885,-0.193176,-0.980796,-0.021531,-0.001602,0.013724,19.928337,7.789559,-68.120621,,,,,,,
1508076505.105246,-0.027792,0.193933,1.842412,-0.051994,0.027457,-0.046315,-0.027268,-0.192719,-0.980875,-0.023834,-0.004592,0.014948,19.884359,7.794925,-68.132858,,,,,,,
1508076505.125237,-0.027017,0.193046,1.841704,-0.063866,0.072179,-0.037358,-0.026512,-0.191849,-0.981066,-0.018868,-0.005005,0.000720,19.862116,7.843861,-68.133728,,,,,,,
1508076505.145248,-0.026408,0.192575,1.840875,-0.017810,0.047683,-0.046633,-0.025917,-0.191387,-0.981173,-0.017769,-0.001759,0.000734,19.917826,7.945033,-68.105736,,,,,,,
1508076505.165265,-0.026146,0.192189,1.839830,0.013248,0.010440,-0.071707,-0.025662,-0.191008,-0.981253,-0.014957,0.016615,-0.000970,19.929298,7.956325,-68.101059,,,,,,,
1508076505.185253,-0.025771,0.192305,1.838504,-0.016764,0.031742,-0.067728,-0.025294,-0.191122,-0.981240,-0.010885,0.003210,-0.002356,19.909197,7.993544,-68.102577,,,,,,,
1508076505.205260,-0.024717,0.191028,1.836707,-0.072549,0.049918,-0.094607,-0.024265,-0.189868,-0.981510,-0.000699,-0.006070,-0.001889,19.926332,8.103806,-68.084534,,,,,,,
1508076505.225284,-0.022904,0.189344,1.835158,-0.083320,0.111635,-0.060305,-0.022492,-0.188215,-0.981870,-0.008788,-0.002810,-0.001757,19.978682,8.214050,-68.055977,,,,,,,
1508076505.245289,-0.020229,0.188712,1.834137,0.053563,0.158435,-0.042959,-0.019868,-0.187594,-0.982046,-0.014845,0.021700,0.005224,20.069630,8.310492,-68.017494,,,,,,,
1508076505.265288,-0.017617,0.191386,1.833772,0.191791,0.122129,-0.016945,-0.017294,-0.190219,-0.981589,0.009146,-0.016034,0.031821,20.328045,8.247594,-67.948380,,,,,,,
1508076505.285301,-0.015935,0.196139,1.833173,0.169477,0.029535,-0.053973,-0.015629,-0.194884,-0.980702,0.016591,-0.020769,0.034474,20.453642,7.918164,-67.949875,,,,,,,
1508076505.305291,-0.014944,0.197886,1.831734,0.029206,0.060463,-0.054316,-0.014652,-0.196597,-0.980375,0.008289,-0.046384,0.058561,20.465036,7.826001,-67.957123,,,,,,,
1508076505.325285,-0.013010,0.196950,1.831323,-0.075669,0.103020,-0.018606,-0.012758,-0.195680,-0.980585,-0.015150,-0.011092,0.038996,20.587111,7.822617,-67.920631,,,,,,,
1508076505.345302,-0.012000,0.196132,1.830541,0.003492,0.068986,-0.056558,-0.011770,-0.194877,-0.980757,-0.025492,0.008994,0.035231,20.678007,7.901196,-67.883911,,,,,,,
1508076505.365319,-0.011005,0.198290,1.829805,0.155706,0.024126,-0.015503,-0.010789,-0.196993,-0.980346,-0.019088,-0.004637,0.052398,20.690485,7.911817,-67.878868,,,,,,,
1508076505.385324,-0.010977,0.201600,1.829864,0.152643,0.001707,0.009350,-0.010754,-0.200237,-0.979688,-0.004413,-0.033909,0.044996,20.727467,7.619243,-67.901054,,,,,,,
1508076505.405340,-0.011836,0.203751,1.830454,0.018992,-0.016401,0.024641,-0.011591,-0.202344,-0.979246,-0.014761,-0.019580,0.037061,20.724241,7.495817,-67.915779,,,,,,,
1508076505.425347,-0.011049,0.203578,1.830634,-0.019913,0.086984,0.000779,-0.010821,-0.202175,-0.979290,-0.045759,0.004253,0.046383,20.682407,7.405572,-67.938431,,,,,,,
1508076505.445341,-0.008190,0.202730,1.830218,-0.054486,0.158438,-0.036486,-0.008022,-0.201344,-0.979488,-0.016804,-0.003750,0.028926,20.872494,7.460187,-67.874290,,,,,,,
1508076505.465358,-0.005305,0.201943,1.829325,-0.007283,0.114756,-0.039087,-0.005197,-0.200573,-0.979665,-0.003348,0.005078,0.018209,21.026104,7.528420,-67.819321,,,,,,,
1508076505.485344,-0.004079,0.203569,1.829571,0.128068,0.036780,0.051512,-0.003995,-0.202166,-0.979343,0.002072,-0.009809,0.014881,21.132231,7.547245,-67.784233,,,,,,,
1508076505.505345,-0.005291,0.206811,1.831174,0.164912,-0.107059,0.063167,-0.005178,-0.205340,-0.978677,0.012472,-0.002302,0.005227,21.175478,7.248720,-67.803314,,,,,,,
1508076505.525376,-0.007296,0.209636,1.831114,0.062873,-0.074896,-0.026793,-0.007136,-0.208104,-0.978081,0.008372,-0.016398,0.017525,21.052958,7.090615,-67.858162,,,,,,,
1508076505.545362,-0.006743,0.209862,1.831290,-0.009030,0.068796,0.039421,-0.006595,-0.208325,-0.978037,0.002369,-0.013843,0.017573,20.994858,6.985288,-67.887085,,,,,,,
1508076505.565377,-0.005697,0.210420,1.832184,0.063778,0.052801,0.038532,-0.005572,-0.208871,-0.977927,0.007403,-0.003348,0.022498,21.115620,6.946155,-67.853638,,,,,,,
1508076505.585395,-0.005784,0.213425,1.833431,0.156163,-0.026126,0.076927,-0.005653,-0.211808,-0.977295,0.000205,-0.008926,0.018082,21.159204,6.839599,-67.850883,,,,,,,
1508076505.605387,-0.006950,0.216975,1.834773,0.172137,-0.029272,0.050303,-0.006787,-0.215276,-0.976530,0.008450,-0.007090,0.032148,21.125830,6.553793,-67.889481,,,,,,,
1508076505.625407,-0.006558,0.220008,1.835469,0.090667,0.002740,0.033905,-0.006400,-0.218238,-0.975875,0.017920,-0.011789,0.025847,21.104656,6.275266,-67.922371,,,,,,,
1508076505.645413,-0.006008,0.221673,1.836128,0.055263,0.043214,0.041874,-0.005860,-0.219862,-0.975513,0.008927,-0.005327,0.024021,21.148968,6.146646,-67.920357,,,,,,,
1508076505.665398,-0.005252,0.223489,1.837515,0.137727,0.058036,0.076786,-0.005121,-0.221633,-0.975117,-0.008490,0.010726,0.007725,21.215694,6.048428,-67.908356,,,,,,,
1508076505.685423,-0.005268,0.227864,1.839420,0.280195,0.028133,0.096306,-0.005132,-0.225897,-0.974138,-0.000255,-0.006342,0.040498,21.312035,5.694879,-67.908760,,,,,,,
1508076505.705406,-0.005826,0.234132,1.841534,0.238631,-0.032566,0.091886,-0.005667,-0.231998,-0.972700,0.002646,-0.015057,0.025419,21.328123,5.363123,-67.930717,,,,,,,
1508076505.725426,-0.006483,0.238170,1.842651,0.089609,0.002738,0.034972,-0.006300,-0.235925,-0.971751,-0.014773,-0.028312,0.023204,21.312126,5.040093,-67.960464,,,,,,,
1508076505.745421,-0.007456,0.238994,1.843477,0.022027,0.033689,0.011117,-0.007244,-0.236725,-0.971550,-0.003712,0.013062,-0.003319,21.261511,4.748906,-67.997284,,,,,,,
1508076505.765451,-0.006335,0.239847,1.842612,0.057200,0.006122,-0.056754,-0.006153,-0.237554,-0.971355,0.014805,-0.011058,-0.004628,21.278294,4.736805,-67.992874,,,,,,,
1508076505.785454,-0.005799,0.241940,1.841824,0.074637,-0.044047,-0.005924,-0.005630,-0.239587,-0.970859,0.020217,-0.019416,-0.000150,21.278294,4.736805,-67.992874,,,,,,,
1508076505.805449,-0.007079,0.242160,1.842219,-0.029073,-0.033441,0.030254,-0.006873,-0.239800,-0.970798,0.000632,-0.022743,0.007541,21.259617,4.550273,-68.011459,,,,,,,
1508076505.825469,-0.007338,0.241253,1.843594,-0.046104,-0.005846,0.083181,-0.007126,-0.238919,-0.971013,-0.004089,0.000669,-0.014796,21.253922,4.575027,-68.011574,,,,,,,
1508076505.845478,-0.008482,0.239724,1.843819,-0.014251,-0.067376,-0.048171,-0.008240,-0.237434,-0.971369,0.000915,0.032478,-0.021399,21.250715,4.596134,-68.011154,,,,,,,
1508076505.865477,-0.009540,0.238704,1.841882,-0.077554,-0.066193,-0.099323,-0.009269,-0.236443,-0.971601,0.014823,0.003442,-0.009036,21.099600,4.761696,-68.046806,,,,,,,
1508076505.885488,-0.009783,0.236889,1.840166,-0.083998,-0.022581,-0.066896,-0.009510,-0.234680,-0.972026,0.023243,0.009826,-0.007542,21.042952,4.881650,-68.055840,,,,,,,
1508076505.905479,-0.009631,0.235531,1.839818,-0.051494,-0.045163,0.036838,-0.009365,-0.233360,-0.972345,0.024227,-0.002084,-0.001364,21.013617,4.987237,-68.057251,,,,,,,
1508076505.925474,-0.011167,0.233699,1.841460,-0.044744,-0.097470,0.091973,-0.010863,-0.231577,-0.972756,-0.009049,0.050867,-0.025779,20.969734,5.092044,-68.063026,,,,,,,
1508076505.945506,-0.013584,0.233591,1.842104,0.011628,-0.102591,-0.017824,-0.013215,-0.231472,-0.972752,-0.027740,0.063015,-0.018902,20.878572,5.146361,-68.086960,,,,,,,
1508076505.965508,-0.013434,0.234105,1.840314,0.026941,0.045658,-0.110622,-0.013067,-0.231973,-0.972634,-0.008173,0.023614,0.007821,20.763201,5.139606,-68.122742,,,,,,,
1508076505.985497,-0.010779,0.234103,1.837930,-0.050158,0.074423,-0.101385,-0.010485,-0.231970,-0.972666,0.030230,-0.019067,0.004130,20.885651,5.166357,-68.083282,,,,,,,
1508076506.005526,-0.009011,0.231315,1.836051,-0.190238,0.063765,-0.080866,-0.008771,-0.229257,-0.973326,0.024472,-0.014929,-0.003099,20.970140,5.349489,-68.043152,,,,,,,
1508076506.025504,-0.008081,0.227122,1.834501,-0.188971,-0.008661,-0.086214,-0.007874,-0.225174,-0.974287,0.013413,0.049515,-0.032168,21.021242,5.586019,-68.008369,,,,,,,
1508076506.045537,-0.007879,0.222063,1.831524,-0.088433,-0.078838,-0.160980,-0.007686,-0.220242,-0.975415,0.031337,0.064588,-0.037509,21.004084,6.098323,-67.969650,,,,,,,
1508076506.065544,-0.008220,0.220228,1.828074,-0.106768,-0.029834,-0.160610,-0.008021,-0.218452,-0.975815,0.029002,0.020058,-0.029572,20.892048,6.288886,-67.986809,,,,,,,
1508076506.085534,-0.006949,0.216560,1.825014,-0.182787,0.010620,-0.136616,-0.006787,-0.214871,-0.976619,0.018658,0.010755,-0.031148,20.904951,6.510061,-67.962021,,,,,,,
1508076506.105524,-0.004487,0.211819,1.821582,-0.256088,0.134311,-0.189537,-0.004387,-0.210239,-0.977640,-0.000953,0.051364,-0.037435,20.898903,6.654634,-67.949883,,,,,,,
1508076506.125545,-0.000299,0.207189,1.816982,-0.204964,0.162091,-0.237962,-0.000293,-0.205710,-0.978613,0.011539,0.050024,-0.046915,21.086330,7.261008,-67.829781,,,,,,,
1508076506.145569,0.004070,0.203138,1.812229,-0.062387,0.106604,-0.206342,0.003986,-0.201744,-0.979430,0.031201,0.027580,-0.058808,21.314453,7.729819,-67.706558,,,,,,,
1508076506.165556,0.006033,0.202825,1.808779,-0.007427,0.036174,-0.150980,0.005909,-0.201437,-0.979484,0.010921,0.006201,-0.034249,21.427986,7.903683,-67.650627,,,,,,,
1508076506.185581,0.006779,0.201642,1.805729,-0.100444,0.002124,-0.157881,0.006641,-0.200278,-0.979717,0.009335,0.004462,-0.016423,21.431635,7.974549,-67.641159,,,,,,,
1508076506.205587,0.008583,0.198279,1.801964,-0.131872,0.089564,-0.199645,0.008414,-0.196983,-0.980371,-0.010947,0.024772,-0.004920,21.425594,8.237070,-67.611603,,,,,,,
1508076506.225584,0.012232,0.195702,1.798190,-0.143744,0.156617,-0.169686,0.011998,-0.194455,-0.980838,0.012111,-0.033786,-0.055646,21.579498,8.555271,-67.523087,,,,,,,
1508076506.245600,0.015414,0.192554,1.794653,-0.138328,0.115107,-0.187215,0.015128,-0.191366,-0.981402,0.015618,-0.019907,-0.062360,21.700369,8.768246,-67.456993,,,,,,,
1508076506.265585,0.018279,0.190274,1.791167,-0.071718,0.064952,-0.150284,0.017948,-0.189128,-0.981788,0.010631,0.005733,-0.054329,21.843046,9.045317,-67.374313,,,,,,,
1508076506.285597,0.019444,0.189346,1.788349,-0.033062,0.034024,-0.137069,0.019095,-0.188217,-0.981942,0.017053,0.006576,-0.013114,21.891996,9.226438,-67.333847,,,,,,,
1508076506.305618,0.020837,0.188896,1.786029,-0.001938,0.041403,-0.102011,0.020465,-0.187775,-0.981999,0.008100,-0.001312,-0.025646,21.920040,9.299749,-67.314644,,,,,,,
1508076506.325615,0.022083,0.189586,1.784087,0.037761,0.020056,-0.088941,0.021686,-0.188452,-0.981843,0.007794,-0.019434,-0.010299,21.974287,9.328787,-67.292938,,,,,,,
1508076506.345610,0.023028,0.189534,1.782003,-0.037288,0.037177,-0.117923,0.022613,-0.188401,-0.981832,0.013031,0.002854,0.010244,21.992924,9.342237,-67.284981,,,,,,,
1508076506.365627,0.025873,0.187226,1.778772,-0.116755,0.086286,-0.160162,0.025418,-0.186134,-0.982196,0.023273,0.008293,0.015368,22.018417,9.454443,-67.260963,,,,,,,
1508076506.385643,0.027989,0.185454,1.776714,-0.060698,0.055182,-0.060587,0.027505,-0.184393,-0.982468,0.063971,-0.034128,-0.022919,22.175890,9.687300,-67.176041,,,,,,,
1508076506.405639,0.027258,0.184443,1.776421,-0.051526,-0.090868,-0.005161,0.026793,-0.183399,-0.982673,0.022951,-0.024548,-0.018074,22.191507,9.806574,-67.153572,,,,,,,
1508076506.425656,0.024648,0.184103,1.776478,-0.063279,-0.088749,0.001215,0.024229,-0.183064,-0.982802,-0.008192,-0.020427,-0.005860,22.160730,9.824457,-67.161118,,,,,,,
1508076506.445662,0.024820,0.182720,1.775946,-0.059638,0.057314,-0.062751,0.024404,-0.181704,-0.983050,-0.047811,0.019122,0.004306,21.962994,9.896482,-67.215477,,,,,,,
1508076506.465666,0.027294,0.182007,1.773253,-0.013039,0.118208,-0.156437,0.026839,-0.181003,-0.983116,0.013825,0.014393,-0.006233,22.060862,10.031028,-67.163467,,,,,,,
1508076506.485648,0.030912,0.182454,1.770570,0.077065,0.110610,-0.095616,0.030394,-0.181443,-0.982932,0.014268,0.005281,-0.009363,22.165468,10.074948,-67.122437,,,,,,,
1508076506.505680,0.032015,0.184101,1.769085,0.067809,0.014686,-0.067561,0.031469,-0.183063,-0.982597,-0.000631,-0.007428,0.003609,22.311827,10.029642,-67.080719,,,,,,,
1508076506.525664,0.033349,0.184452,1.766907,-0.005404,0.089411,-0.137899,0.032778,-0.183408,-0.982490,-0.043306,0.034223,0.041237,22.336582,9.995679,-67.077553,,,,,,,
1508076506.545693,0.036211,0.182920,1.763564,-0.015464,0.180051,-0.186123,0.035599,-0.181902,-0.982672,-0.025009,0.031267,0.036398,22.439333,10.059843,-67.033646,,,,,,,
1508076506.565699,0.040017,0.182676,1.760121,-0.010909,0.128842,-0.148063,0.039341,-0.181662,-0.982574,0.050686,-0.004098,0.037124,22.576437,10.227227,-66.962250,,,,,,,
1508076506.585705,0.041508,0.181301,1.758201,-0.091639,0.013661,-0.069558,0.040816,-0.180309,-0.982763,0.039338,-0.011417,0.008611,22.710629,10.359270,-66.896538,,,,,,,
1508076506.605711,0.041922,0.179356,1.757248,-0.090227,-0.057787,-0.029071,0.041237,-0.178396,-0.983094,0.021980,0.002584,0.011827,22.692225,10.472760,-66.885117,,,,,,,
1508076506.625695,0.040431,0.177048,1.756878,-0.132942,-0.084412,-0.026520,0.039789,-0.176125,-0.983563,0.016974,0.001228,0.007443,22.667381,10.621596,-66.870064,,,,,,,
1508076506.645724,0.039637,0.174420,1.756304,-0.108566,-0.014096,-0.035022,0.039025,-0.173537,-0.984054,-0.010781,0.040343,-0.018433,22.547785,10.860869,-66.872063,,,,,,,
1508076506.665730,0.039637,0.172189,1.755917,0.004752,0.036974,-0.019853,0.039041,-0.171339,-0.984438,-0.012643,0.029692,-0.025709,22.547779,10.951364,-66.857307,,,,,,,
1508076506.685723,0.039973,0.172565,1.755787,0.002810,-0.002489,0.005246,0.039368,-0.171710,-0.984361,0.013580,-0.015653,-0.001128,22.548458,11.045065,-66.841660,,,,,,,
1508076506.705718,0.039158,0.170976,1.755995,-0.085883,-0.047202,0.002762,0.038577,-0.170145,-0.984664,-0.001483,0.010248,0.007552,22.520655,11.083827,-66.844620,,,,,,,
1508076506.725748,0.038645,0.168860,1.755901,-0.110664,-0.006685,-0.012736,0.038086,-0.168059,-0.985041,-0.014282,0.008071,-0.010137,22.466391,11.246850,-66.835648,,,,,,,
1508076506.745751,0.038463,0.167408,1.756019,-0.050673,0.000700,0.014836,0.037916,-0.166627,-0.985291,-0.006803,-0.006423,-0.017334,22.469013,11.351938,-66.816994,,,,,,,
1508076506.765746,0.037754,0.167484,1.756613,0.030849,-0.051544,0.028328,0.037217,-0.166703,-0.985305,-0.023560,-0.006302,-0.001359,22.434792,11.377878,-66.824081,,,,,,,
1508076506.785767,0.036175,0.168292,1.756673,0.020113,-0.084481,-0.012772,0.035656,-0.167499,-0.985227,-0.027371,-0.011456,0.011411,22.373335,11.328043,-66.853149,,,,,,,
1508076506.805774,0.034437,0.168207,1.756008,-0.089392,-0.012995,-0.059576,0.033944,-0.167415,-0.985302,-0.008248,-0.017521,0.007717,22.204439,11.261712,-66.920631,,,,,,,
1508076506.825779,0.034291,0.165872,1.754934,-0.134387,0.008313,-0.056652,0.033814,-0.165112,-0.985695,-0.004838,0.001706,-0.031456,22.165075,11.435312,-66.904243,,,,,,,
1508076506.845785,0.033861,0.163479,1.753661,-0.041209,-0.035359,-0.069951,0.033403,-0.162752,-0.986101,-0.003664,0.013643,-0.022764,22.165075,11.435312,-66.904243,,,,,,,
1508076506.865793,0.033052,0.163069,1.752715,0.043440,-0.037579,-0.035860,0.032608,-0.162347,-0.986195,-0.002121,0.005716,-0.019817,22.045515,11.751674,-66.888916,,,,,,,
1508076506.885798,0.032726,0.164791,1.752092,0.030680,-0.045065,-0.018682,0.032277,-0.164047,-0.985924,0.015209,-0.030305,0.002160,21.978817,11.686424,-66.922295,,,,,,,
1508076506.905796,0.032191,0.165194,1.751587,-0.086978,-0.068452,-0.026785,0.031747,-0.164444,-0.985875,0.020606,-0.034378,-0.000376,21.936745,11.644399,-66.943420,,,,,,,
1508076506.925811,0.032248,0.163824,1.750795,-0.057296,0.005083,-0.047067,0.031811,-0.163093,-0.986098,-0.013318,0.009070,-0.036653,21.923094,11.663776,-66.944519,,,,,,,
1508076506.945817,0.032167,0.164544,1.749857,0.075472,-0.015202,-0.040475,0.031727,-0.163803,-0.985983,0.014721,-0.011337,-0.028574,21.900307,11.715993,-66.942863,,,,,,,
1508076506.965797,0.031692,0.166513,1.749365,0.093899,-0.053631,-0.002611,0.031249,-0.165744,-0.985673,0.023439,-0.024578,-0.023802,21.880636,11.636660,-66.963127,,,,,,,
1508076506.985830,0.031120,0.168747,1.749476,0.078951,-0.049389,0.010134,0.030673,-0.167947,-0.985319,0.007108,-0.007941,-0.034594,21.852018,11.468214,-67.001518,,,,,,,
1508076507.005835,0.030604,0.170867,1.749489,0.099146,-0.015284,-0.001039,0.030154,-0.170036,-0.984976,-0.000643,-0.023262,-0.024820,21.787310,11.307720,-67.049858,,,,,,,
1508076507.025814,0.030850,0.172114,1.748947,0.032586,0.021018,-0.034570,0.030390,-0.171266,-0.984756,0.007544,-0.027282,-0.007157,21.779724,11.223848,-67.066406,,,,,,,
1508076507.045847,0.031867,0.173082,1.748321,0.012206,0.044448,-0.029563,0.031385,-0.172219,-0.984559,-0.007567,-0.011832,-0.018920,21.814989,11.142770,-67.068466,,,,,,,
1508076507.065837,0.032203,0.174712,1.747546,0.120456,-0.019484,-0.034049,0.031707,-0.173825,-0.984266,0.003785,-0.009495,-0.031985,21.855339,11.088586,-67.064308,,,,,,,
1508076507.085854,0.031864,0.178187,1.747018,0.134537,-0.048296,-0.009117,0.031354,-0.177245,-0.983667,0.003467,-0.005097,-0.002981,21.846916,11.051896,-67.073112,,,,,,,
1508076507.105866,0.031304,0.180617,1.746926,0.102254,0.015619,-0.006820,0.030790,-0.179636,-0.983251,-0.011945,0.002161,0.015920,21.769024,10.734884,-67.149879,,,,,,,
1508076507.125871,0.031931,0.181436,1.746282,0.001450,0.042361,-0.049785,0.031402,-0.180443,-0.983084,-0.004333,0.018349,0.035605,21.790939,10.615617,-67.161728,,,,,,,
1508076507.145879,0.033457,0.181567,1.745008,0.030283,0.059402,-0.052186,0.032900,-0.180571,-0.983012,-0.000872,0.025145,0.037913,21.838949,10.638163,-67.142563,,,,,,,
1508076507.165884,0.033936,0.182234,1.744501,0.042500,-0.038696,-0.003856,0.033368,-0.181227,-0.982875,0.018360,-0.001177,0.021388,21.916515,10.627661,-67.118950,,,,,,,
1508076507.185891,0.032328,0.183132,1.744860,0.044900,-0.089896,0.029940,0.031782,-0.182110,-0.982764,-0.008284,0.014309,0.031928,21.826303,10.551354,-67.160378,,,,,,,
1508076507.205898,0.030207,0.183743,1.745321,0.017907,-0.041896,-0.000591,0.029694,-0.182711,-0.982718,-0.023789,0.007723,0.029090,21.679884,10.488637,-67.217598,,,,,,,
1508076507.225904,0.030165,0.183121,1.744732,-0.051967,0.018927,-0.044073,0.029656,-0.182100,-0.982833,-0.007348,0.003343,0.019408,21.647398,10.496163,-67.226891,,,,,,,
1508076507.245908,0.031035,0.181186,1.743792,-0.070252,0.041316,-0.051848,0.030522,-0.180197,-0.983157,0.000591,0.031362,-0.013730,21.674896,10.656345,-67.192825,,,,,,,
1508076507.265916,0.031393,0.180946,1.742813,0.041200,-0.000282,-0.038533,0.030875,-0.179960,-0.983189,0.001382,0.044005,-0.010875,21.691923,10.726415,-67.176178,,,,,,,
1508076507.285905,0.031299,0.183002,1.742562,0.108662,0.021999,-0.003718,0.030771,-0.181982,-0.982820,-0.010828,0.000265,0.013857,21.690044,10.667979,-67.186089,,,,,,,
1508076507.305927,0.032302,0.184252,1.742341,0.027197,0.057195,-0.014831,0.031749,-0.183212,-0.982561,-0.003353,-0.018952,0.021455,21.720875,10.513032,-67.200554,,,,,,,
1508076507.325935,0.033126,0.183827,1.741821,-0.031610,0.018895,-0.035561,0.032562,-0.182794,-0.982612,0.001755,-0.012275,0.016547,21.770306,10.516027,-67.184082,,,,,,,
1508076507.345941,0.033664,0.184369,1.741435,0.008145,0.008154,0.004018,0.033087,-0.183326,-0.982495,0.001047,-0.017297,0.033444,21.802132,10.518376,-67.173393,,,,,,,
1508076507.365946,0.033141,0.184639,1.742005,0.021198,-0.027068,0.037574,0.032571,-0.183592,-0.982463,0.012900,-0.039110,0.034434,21.795338,10.496906,-67.178955,,,,,,,
1508076507.385950,0.032675,0.187217,1.743312,0.005352,-0.035690,0.089960,0.032098,-0.186125,-0.982002,0.006110,-0.054811,0.022865,21.795338,10.496906,-67.178955,,,,,,,
1508076507.405960,0.031317,0.185729,1.745031,-0.130557,-0.055851,0.067962,0.030774,-0.184663,-0.982320,0.003696,-0.048308,0.013387,21.764528,10.293033,-67.220482,,,,,,,
1508076507.425965,0.030437,0.182288,1.746732,-0.187313,-0.006899,0.099283,0.029928,-0.181280,-0.982976,0.000376,-0.027292,-0.022365,21.709705,10.501925,-67.205902,,,,,,,
1508076507.445972,0.029851,0.179711,1.749777,-0.183690,-0.063503,0.173676,0.029366,-0.178745,-0.983457,0.016838,-0.041165,-0.043566,21.720795,10.655722,-67.178101,,,,,,,
1508076507.465979,0.026583,0.176791,1.754240,-0.129689,-0.151013,0.247413,0.026166,-0.175872,-0.984065,0.038424,-0.047349,-0.055638,21.691643,10.739555,-67.174164,,,,,,,
1508076507.485984,0.021791,0.174629,1.760519,-0.129248,-0.201259,0.337711,0.021458,-0.173743,-0.984557,0.018734,-0.023263,-0.058503,21.488041,10.797050,-67.230362,,,,,,,
1508076507.505990,0.017032,0.172339,1.767705,-0.110124,-0.139509,0.351729,0.016779,-0.171487,-0.985043,0.001547,-0.015021,-0.053958,21.345730,10.821988,-67.271683,,,,,,,
1508076507.525997,0.013818,0.170962,1.775354,-0.060915,-0.083158,0.398859,0.013617,-0.170131,-0.985327,-0.008841,-0.016103,-0.035775,21.245996,10.798561,-67.307007,,,,,,,
1508076507.545985,0.009779,0.169887,1.783982,-0.063772,-0.168438,0.429954,0.009638,-0.169071,-0.985557,0.012274,-0.035565,-0.048608,21.181902,10.681411,-67.345886,,,,,,,
1508076507.566008,0.003830,0.169262,1.792701,-0.055077,-0.219561,0.424291,0.003775,-0.168455,-0.985702,-0.032828,-0.012117,-0.041565,20.988979,10.548570,-67.427185,,,,,,,
1508076507.585991,-0.001305,0.168359,1.800678,-0.036166,-0.166185,0.364856,-0.001286,-0.167564,-0.985860,-0.042934,-0.002495,-0.035258,20.888391,10.496475,-67.466537,,,,,,,
1508076507.606022,-0.006325,0.167400,1.807247,-0.015254,-0.092530,0.281669,-0.006237,-0.166620,-0.986002,-0.030766,0.006158,-0.019659,20.673798,10.343727,-67.556168,,,,,,,
1508076507.626027,-0.007912,0.166739,1.812103,-0.049932,-0.019949,0.213465,-0.007802,-0.165967,-0.986100,-0.024577,0.012525,-0.026229,20.558401,10.298419,-67.598289,,,,,,,
1508076507.646035,-0.009437,0.163871,1.815402,-0.057746,-0.011249,0.123776,-0.009310,-0.163139,-0.986559,-0.016386,0.036430,-0.006864,20.569641,10.299737,-67.594673,,,,,,,
1508076507.666039,-0.009774,0.163048,1.817344,-0.034377,0.004801,0.085139,-0.009644,-0.162327,-0.986690,-0.010421,0.029606,0.015163,20.542759,10.429889,-67.582886,,,,,,,
1508076507.686046,-0.009986,0.161927,1.818664,-0.007580,-0.036703,0.062262,-0.009855,-0.161221,-0.986869,0.008650,0.023068,0.035331,20.548847,10.432990,-67.580559,,,,,,,
1508076507.706053,-0.010979,0.161708,1.820167,-0.016085,-0.035672,0.080380,-0.010836,-0.161004,-0.986894,0.004198,0.013482,0.040209,20.552311,10.475613,-67.572914,,,,,,,
1508076507.726057,-0.012613,0.160823,1.821748,-0.059797,-0.097431,0.073845,-0.012450,-0.160131,-0.987017,-0.013353,0.024190,0.049349,20.479761,10.477594,-67.594627,,,,,,,
1508076507.746064,-0.016025,0.159124,1.822978,-0.036360,-0.101633,0.038701,-0.015822,-0.158453,-0.987240,-0.029283,0.021460,0.069637,20.278543,10.570403,-67.640831,,,,,,,
1508076507.766072,-0.017410,0.157802,1.823465,-0.089021,-0.045124,0.019794,-0.017193,-0.157148,-0.987425,-0.031787,0.006238,0.069548,20.218561,10.590036,-67.655708,,,,,,,
1508076507.786077,-0.018268,0.155097,1.823899,-0.145721,-0.044056,0.025152,-0.018048,-0.154476,-0.987832,-0.000064,0.006558,0.030724,20.130634,10.776494,-67.652489,,,,,,,
1508076507.806056,-0.019561,0.152583,1.824527,-0.105984,-0.073927,0.042617,-0.019332,-0.151992,-0.988193,-0.000123,0.008513,0.018329,20.082851,10.917518,-67.644081,,,,,,,
1508076507.826089,-0.021717,0.151277,1.825338,-0.034245,-0.102681,0.030184,-0.021467,-0.150701,-0.988346,-0.016008,0.027364,0.010823,20.013214,11.012595,-67.649307,,,,,,,
1508076507.846096,-0.023422,0.150172,1.825526,0.005929,0.014564,-0.012065,-0.023156,-0.149608,-0.988474,-0.023337,0.006435,0.015101,19.797216,11.127965,-67.693962,,,,,,,
1508076507.866101,-0.022012,0.150097,1.824646,-0.022248,0.074334,-0.067292,-0.021762,-0.149534,-0.988517,-0.011944,0.002058,0.013618,19.834921,11.129184,-67.682724,,,,,,,
1508076507.886108,-0.019950,0.149310,1.822659,-0.044921,0.098920,-0.107085,-0.019726,-0.148756,-0.988677,0.007763,-0.004290,0.013122,19.923683,11.194324,-67.645905,,,,,,,
1508076507.906114,-0.016885,0.148606,1.820477,-0.027866,0.125541,-0.103219,-0.016698,-0.148059,-0.988838,0.011952,0.008945,0.006843,20.100412,11.319133,-67.572807,,,,,,,
1508076507.926120,-0.014235,0.149054,1.818429,0.048203,0.101008,-0.096522,-0.014077,-0.148503,-0.988812,0.021065,0.006642,0.004422,20.210335,11.359300,-67.533272,,,,,,,
1508076507.946127,-0.012755,0.150189,1.816761,0.051624,0.047712,-0.079757,-0.012611,-0.149625,-0.988662,0.035774,-0.001361,0.005874,20.312428,11.330611,-67.507462,,,,,,,
1508076507.966124,-0.009495,0.150765,1.814982,0.012986,0.094586,-0.072945,-0.009387,-0.150195,-0.988612,0.021838,0.007906,0.013529,20.490883,11.305921,-67.457649,,,,,,,
1508076507.986133,-0.006907,0.151142,1.813545,0.026840,0.116946,-0.070081,-0.006828,-0.150568,-0.988576,0.034706,0.009485,0.006002,20.627022,11.315502,-67.414536,,,,,,,
1508076508.006129,-0.003468,0.152230,1.812066,0.062484,0.031678,-0.045414,-0.003428,-0.151643,-0.988429,0.043284,-0.000487,0.005031,20.691919,11.308846,-67.395760,,,,,,,
1508076508.026134,-0.003323,0.152816,1.811492,-0.006892,-0.003503,-0.022459,-0.003284,-0.152222,-0.988341,0.028186,-0.020569,0.019087,20.862518,11.239265,-67.354797,,,,,,,
1508076508.046140,-0.002687,0.150450,1.810748,-0.120493,0.028532,-0.046297,-0.002657,-0.149883,-0.988700,0.006349,0.015773,-0.000298,20.861473,11.324265,-67.340881,,,,,,,
1508076508.066164,-0.000137,0.145438,1.809470,-0.059782,0.107368,-0.057084,-0.000135,-0.144926,-0.989442,0.012434,0.036436,-0.014723,20.935804,11.612663,-67.268661,,,,,,,
1508076508.086169,0.001743,0.145748,1.808670,0.050668,0.062538,-0.025594,0.001724,-0.145232,-0.989396,0.040161,0.003448,-0.018920,21.121014,11.792338,-67.179443,,,,,,,
1508076508.106166,0.003138,0.146729,1.808717,0.055297,0.007035,0.031721,0.003105,-0.146203,-0.989250,0.024300,0.004952,-0.005639,21.167395,11.715226,-67.178337,,,,,,,
1508076508.126183,0.003325,0.148009,1.809600,0.067045,0.026186,0.042097,0.003288,-0.147470,-0.989061,0.003151,0.017312,0.004518,21.240362,11.687171,-67.160187,,,,,,,
1508076508.146189,0.004365,0.148748,1.809832,0.010022,0.077428,-0.006586,0.004316,-0.148201,-0.988948,-0.011870,-0.005471,0.028590,21.315950,11.554773,-67.159149,,,,,,,
1508076508.166189,0.006453,0.148058,1.809433,-0.070464,0.130755,-0.029692,0.006382,-0.147517,-0.989039,-0.009190,-0.002461,0.022135,21.341578,11.552110,-67.151474,,,,,,,
1508076508.186202,0.008868,0.146496,1.808946,-0.073546,0.103031,-0.015425,0.008773,-0.145972,-0.989250,0.010865,0.007132,0.003502,21.515329,11.636560,-67.081406,,,,,,,
1508076508.206207,0.010864,0.145177,1.809380,-0.008952,0.042168,0.050453,0.010750,-0.144668,-0.989422,0.015602,0.012771,-0.010288,21.708776,11.762822,-66.997009,,,,,,,
1508076508.226190,0.010334,0.145857,1.810728,0.053432,-0.045235,0.069801,0.010224,-0.145340,-0.989329,0.006194,0.001435,0.001292,21.777189,11.775678,-66.972542,,,,,,,
1508076508.246221,0.009127,0.147157,1.812169,0.009408,0.001654,0.064889,0.009028,-0.146626,-0.989151,-0.026057,-0.016917,0.014496,21.711615,11.638047,-67.017883,,,,,,,
1508076508.266225,0.010408,0.146378,1.812974,-0.059492,0.093372,0.019892,0.010296,-0.145856,-0.989252,-0.017468,-0.001819,-0.003332,21.781244,11.628176,-66.996994,,,,,,,
1508076508.286229,0.012325,0.145029,1.812816,-0.055333,0.094509,-0.016382,0.012195,-0.144521,-0.989426,0.012600,-0.000223,-0.013839,21.907825,11.719560,-66.939774,,,,,,,
1508076508.306239,0.014809,0.144594,1.812797,-0.004953,0.100824,0.016544,0.014654,-0.144090,-0.989456,0.009257,-0.001738,-0.013931,21.971497,11.754850,-66.912712,,,,,,,
1508076508.326244,0.016452,0.144597,1.813137,-0.003769,0.060343,0.013926,0.016279,-0.144094,-0.989430,0.004046,-0.001262,-0.006679,22.189877,11.762679,-66.839226,,,,,,,
1508076508.346224,0.017629,0.144708,1.813525,0.026256,0.053917,0.027859,0.017444,-0.144203,-0.989394,0.004865,0.005012,0.001601,22.288557,11.758547,-66.807121,,,,,,,
1508076508.366257,0.018396,0.145795,1.814240,0.039267,0.010216,0.040212,0.018199,-0.145279,-0.989223,0.005650,-0.004761,0.006710,22.326752,11.731311,-66.799156,,,,,,,
1508076508.386251,0.018115,0.146788,1.814943,-0.052814,0.014528,0.025291,0.017920,-0.146262,-0.989084,-0.013998,-0.014093,0.014947,22.396519,11.602448,-66.798309,,,,,,,
1508076508.406245,0.017386,0.142100,1.815413,-0.119365,0.050810,-0.001842,0.017210,-0.141622,-0.989771,-0.005338,0.036581,-0.019521,22.326134,11.757585,-66.794739,,,,,,,
1508076508.426266,0.018531,0.140678,1.815071,-0.030631,0.058281,-0.020144,0.018347,-0.140215,-0.989951,0.001169,0.032015,-0.014550,22.326134,11.757585,-66.794739,,,,,,,
1508076508.446282,0.019674,0.141124,1.815157,0.038071,0.031548,0.022844,0.019477,-0.140656,-0.989867,0.006203,-0.000854,-0.004991,22.453449,11.968553,-66.714546,,,,,,,
1508076508.466292,0.019783,0.141397,1.815656,0.012429,0.013453,0.018860,0.019585,-0.140926,-0.989826,-0.014320,0.015667,-0.001659,22.490526,11.928230,-66.709282,,,,,,,
1508076508.486295,0.019252,0.140785,1.816010,0.040079,0.052885,0.003340,0.019061,-0.140320,-0.989923,-0.018511,0.017731,0.007592,22.505796,11.917226,-66.706100,,,,,,,
1508076508.506300,0.020373,0.140987,1.815532,-0.005106,0.082816,-0.043977,0.020169,-0.140520,-0.989872,-0.002393,0.001406,0.011128,22.511536,11.948361,-66.698593,,,,,,,
1508076508.526300,0.022493,0.140146,1.814690,-0.040284,0.056161,-0.026504,0.022270,-0.139688,-0.989945,0.011925,0.005136,0.000092,22.593788,11.984369,-66.664307,,,,,,,
1508076508.546314,0.023268,0.138693,1.814239,-0.043404,0.024207,-0.027104,0.023043,-0.138248,-0.990130,-0.004839,0.009830,0.001543,22.693956,12.081550,-66.612724,,,,,,,
1508076508.566318,0.023331,0.137101,1.813922,-0.029632,0.081699,-0.016219,0.023110,-0.136672,-0.990347,-0.020348,0.016509,-0.000803,22.704309,12.208429,-66.586060,,,,,,,
1508076508.586317,0.025045,0.136330,1.813775,0.028213,0.069948,-0.006495,0.024810,-0.135908,-0.990411,0.007524,0.016569,0.001382,22.742321,12.287536,-66.558525,,,,,,,
1508076508.606332,0.026406,0.137758,1.813281,0.060409,0.023100,-0.020768,0.026152,-0.137323,-0.990181,0.008821,-0.014960,0.012291,22.854151,12.281368,-66.521347,,,,,,,
1508076508.626337,0.026726,0.140260,1.813280,0.028519,-0.005725,0.015928,0.026461,-0.139801,-0.989826,0.000898,-0.029145,0.027500,22.906408,12.118861,-66.533180,,,,,,,
1508076508.646276,0.025964,0.141073,1.813416,-0.058291,0.008204,-0.015131,0.025703,-0.140606,-0.989732,-0.020118,-0.019276,0.031144,22.891701,11.999007,-66.559959,,,,,,,
1508076508.666303,0.025632,0.139915,1.813088,-0.072321,0.036985,-0.026201,0.025379,-0.139459,-0.989903,-0.018757,-0.004874,0.003147,22.836828,12.027994,-66.573578,,,,,,,
1508076508.686309,0.025883,0.139458,1.812580,-0.025154,0.006087,-0.028987,0.025629,-0.139006,-0.989960,-0.000375,-0.012346,-0.003403,22.837412,12.125827,-66.555626,,,,,,,
1508076508.706309,0.025918,0.139715,1.811851,0.005815,0.012497,-0.042965,0.025662,-0.139261,-0.989923,-0.012005,-0.014501,-0.000555,22.838732,12.134102,-66.553658,,,,,,,
1508076508.726322,0.026010,0.140630,1.810889,-0.019851,-0.003453,-0.054444,0.025751,-0.140167,-0.989793,0.003394,-0.024964,0.012422,22.810507,12.094597,-66.570534,,,,,,,
1508076508.746327,0.026011,0.140556,1.809833,-0.047513,-0.041819,-0.041071,0.025752,-0.140094,-0.989803,0.017080,-0.027875,0.002483,22.803970,12.082078,-66.575043,,,,,,,
1508076508.766306,0.024946,0.140451,1.809269,-0.053776,-0.070619,-0.020389,0.024698,-0.139989,-0.989845,-0.002008,-0.021342,-0.006279,22.787560,12.102581,-66.576942,,,,,,,
1508076508.786339,0.023378,0.139348,1.809025,-0.056121,-0.007762,-0.026630,0.023149,-0.138897,-0.990036,-0.020647,0.003598,-0.012741,22.640890,12.148863,-66.618538,,,,,,,
1508076508.806317,0.023710,0.138101,1.807926,-0.014637,0.023213,-0.074027,0.023482,-0.137663,-0.990201,0.003450,0.008955,-0.019809,22.585276,12.276171,-66.614075,,,,,,,
1508076508.826334,0.025183,0.138256,1.806259,0.014307,0.012546,-0.067497,0.024940,-0.137816,-0.990144,0.027459,-0.005327,-0.007384,22.592878,12.307105,-66.605797,,,,,,,
1508076508.846359,0.026348,0.138771,1.805094,0.008009,-0.003472,-0.044869,0.026092,-0.138326,-0.990043,0.016282,-0.006922,0.000068,22.689472,12.326798,-66.569305,,,,,,,
1508076508.866364,0.026917,0.138963,1.804118,-0.016610,0.000796,-0.043846,0.026654,-0.138516,-0.990001,0.012301,-0.008105,0.011425,22.709743,12.331007,-66.561615,,,,,,,
1508076508.886362,0.027512,0.137872,1.803179,-0.071310,0.031724,-0.054917,0.027247,-0.137436,-0.990136,-0.001124,0.008987,-0.005439,22.734102,12.350883,-66.549614,,,,,,,
1508076508.906378,0.028989,0.136105,1.801851,-0.017951,0.071139,-0.061927,0.028717,-0.135685,-0.990336,0.007630,0.016651,-0.005239,22.765532,12.508637,-66.509392,,,,,,,
1508076508.926383,0.030973,0.136342,1.800821,0.013262,0.031682,-0.042185,0.030680,-0.135920,-0.990245,0.022283,-0.007268,-0.001851,22.885168,12.580466,-66.454758,,,,,,,
1508076508.946366,0.031804,0.136530,1.800134,-0.018579,-0.023757,-0.012568,0.031503,-0.136106,-0.990193,0.018714,-0.004107,0.003850,22.954435,12.564033,-66.433975,,,,,,,
1508076508.966397,0.031303,0.136199,1.800226,0.011496,-0.039782,0.007902,0.031008,-0.135778,-0.990254,0.000441,0.006246,0.014958,22.956007,12.594306,-66.427704,,,,,,,
1508076508.986402,0.030296,0.137048,1.800298,0.004945,-0.005676,-0.002184,0.030007,-0.136619,-0.990169,-0.015389,-0.011666,0.031978,22.888844,12.560976,-66.457176,,,,,,,
1508076509.006392,0.030393,0.137114,1.800074,-0.032724,0.043378,-0.025259,0.030103,-0.136685,-0.990157,-0.010404,-0.008182,0.022338,22.856495,12.526637,-66.474792,,,,,,,
1508076509.026416,0.031318,0.136678,1.799144,-0.078705,0.002969,-0.053429,0.031021,-0.136253,-0.990188,0.015457,-0.021996,-0.000824,22.893026,12.552475,-66.457352,,,,,,,
1508076509.046420,0.031809,0.134794,1.798302,-0.100028,0.007182,-0.025751,0.031515,-0.134386,-0.990428,0.003183,0.002596,-0.011296,22.919653,12.685858,-66.422836,,,,,,,
1508076509.066416,0.032309,0.132672,1.798135,-0.046590,0.042293,-0.012438,0.032019,-0.132283,-0.990695,-0.004447,0.015858,-0.021283,22.932741,12.810271,-66.394432,,,,,,,
1508076509.086433,0.032779,0.132044,1.797738,-0.005841,0.003951,-0.020443,0.032488,-0.131660,-0.990762,0.015165,0.003624,-0.021765,22.973129,12.913324,-66.360497,,,,,,,
1508076509.106440,0.032783,0.132612,1.797850,0.045713,-0.006812,0.028724,0.032490,-0.132224,-0.990687,0.014095,-0.004907,-0.010411,22.978516,12.902532,-66.360725,,,,,,,
1508076509.126444,0.031898,0.133691,1.798480,0.040426,-0.034495,0.022732,0.031608,-0.133293,-0.990573,-0.007087,-0.003289,0.004931,22.978107,12.884057,-66.364456,,,,,,,
1508076509.146452,0.031377,0.134389,1.798783,0.016664,0.025188,0.009089,0.031089,-0.133985,-0.990496,-0.013526,-0.002200,0.004961,22.908318,12.767301,-66.411133,,,,,,,
1508076509.166456,0.032318,0.134608,1.798534,-0.005981,0.045504,-0.026376,0.032020,-0.134201,-0.990437,0.004983,-0.006378,-0.005627,22.942684,12.738316,-66.404839,,,,,,,
1508076509.186442,0.033387,0.134343,1.797970,-0.003820,0.043365,-0.022082,0.033080,-0.133939,-0.990437,0.001436,0.002179,-0.008342,22.962732,12.736109,-66.398331,,,,,,,
1508076509.206458,0.034098,0.134424,1.797744,0.020880,0.029481,-0.006971,0.033784,-0.134019,-0.990403,-0.002457,0.007280,-0.006073,23.034077,12.766212,-66.367836,,,,,,,
1508076509.226476,0.034357,0.134962,1.797555,0.030622,-0.005679,-0.004336,0.034037,-0.134553,-0.990322,0.007726,-0.002288,0.006526,23.068733,12.746230,-66.359642,,,,,,,
1508076509.246470,0.034420,0.135343,1.797657,0.003853,0.015605,0.009237,0.034098,-0.134930,-0.990268,-0.010722,0.002453,0.009876,23.076180,12.718298,-66.362404,,,,,,,
1508076509.266490,0.034670,0.135231,1.797622,0.006947,0.028433,-0.014409,0.034346,-0.134819,-0.990275,-0.015349,0.009056,0.010966,23.091747,12.704315,-66.359673,,,,,,,
1508076509.286495,0.034980,0.135527,1.797227,0.029420,0.022046,-0.019665,0.034653,-0.135113,-0.990224,0.002869,-0.002766,0.014959,23.100718,12.715747,-66.354355,,,,,,,
1508076509.306495,0.035355,0.136571,1.797102,0.017791,-0.002492,0.000959,0.035018,-0.136147,-0.990070,0.002869,-0.011344,0.013415,23.128071,12.667920,-66.353981,,,,,,,
1508076509.326508,0.035195,0.136908,1.796969,-0.020737,-0.009927,-0.008505,0.034858,-0.136481,-0.990029,-0.002891,-0.006799,0.013192,23.132343,12.614104,-66.362740,,,,,,,
1508076509.346509,0.034902,0.136159,1.796877,-0.037889,0.004981,-0.004443,0.034572,-0.135739,-0.990141,-0.007594,0.003018,0.007780,23.107731,12.650469,-66.364395,,,,,,,
1508076509.366495,0.034937,0.135400,1.796798,0.004816,0.027356,-0.013330,0.034611,-0.134986,-0.990243,-0.008854,0.012504,0.010613,23.095779,12.700306,-66.359039,,,,,,,
1508076509.386527,0.035519,0.135926,1.796193,0.021859,0.030590,-0.034715,0.035184,-0.135508,-0.990151,-0.000562,-0.005849,0.012521,23.108032,12.714629,-66.352028,,,,,,,
1508076509.406532,0.036818,0.136516,1.795465,-0.014524,0.042300,-0.025261,0.036468,-0.136092,-0.990025,0.016145,-0.013734,0.013996,23.161337,12.683656,-66.339363,,,,,,,
1508076509.426527,0.037844,0.135828,1.795193,-0.066800,0.009259,-0.007683,0.037487,-0.135411,-0.990080,0.013233,-0.006878,0.003859,23.235622,12.685528,-66.313026,,,,,,,
1508076509.446545,0.038225,0.134089,1.795264,-0.057194,0.031599,0.005848,0.037873,-0.133688,-0.990300,-0.007935,0.014288,-0.009426,23.272274,12.777351,-66.282539,,,,,,,
1508076509.466551,0.038427,0.133397,1.795450,0.006037,0.002812,0.010483,0.038076,-0.133002,-0.990384,0.002650,0.007392,0.002072,23.295900,12.874421,-66.255455,,,,,,,
1508076509.486533,0.038591,0.133713,1.795733,0.017771,0.021971,0.016595,0.038237,-0.133315,-0.990336,-0.005369,-0.003541,0.002970,23.300941,12.880801,-66.252434,,,,,,,
1508076509.506564,0.038636,0.134013,1.796322,-0.011016,0.004901,0.032858,0.038280,-0.133612,-0.990294,-0.004985,-0.008477,0.007445,23.325439,12.825315,-66.254578,,,,,,,
1508076509.526570,0.038543,0.133643,1.796715,-0.048559,0.008157,0.007248,0.038190,-0.133246,-0.990347,-0.006940,-0.002374,0.006445,23.336449,12.806300,-66.254387,,,,,,,
1508076509.546571,0.038536,0.132864,1.796927,-0.037906,0.024131,0.007009,0.038187,-0.132473,-0.990451,-0.000803,-0.003818,0.009921,23.331644,12.880990,-66.241600,,,,,,,
1508076509.566582,0.038907,0.132431,1.797072,-0.031482,0.018812,0.002816,0.038556,-0.132044,-0.990494,0.000018,-0.009527,0.005737,23.353897,12.905994,-66.228882,,,,,,,
1508076509.586585,0.039179,0.131633,1.797087,-0.048615,0.013507,-0.005625,0.038830,-0.131253,-0.990588,0.000263,0.000378,0.003756,23.372797,12.919616,-66.219559,,,,,,,
1508076509.606577,0.039582,0.130374,1.796989,-0.059325,0.017769,-0.004612,0.039236,-0.130005,-0.990737,0.000895,0.003876,-0.013429,23.385128,12.965478,-66.206245,,,,,,,
1508076509.626594,0.040017,0.128830,1.796922,-0.032561,0.013500,-0.003504,0.039675,-0.128474,-0.990919,0.005369,0.015025,-0.016604,23.422228,13.107957,-66.165054,,,,,,,
1508076509.646588,0.040465,0.128190,1.797052,0.009253,0.005996,0.015766,0.040122,-0.127839,-0.990983,0.008249,0.009614,-0.014922,23.455271,13.186694,-66.137703,,,,,,,
1508076509.666603,0.040479,0.128830,1.797518,0.038224,-0.007883,0.027675,0.040133,-0.128474,-0.990901,0.001874,-0.005712,-0.003072,23.470116,13.172319,-66.135300,,,,,,,
1508076509.686620,0.040169,0.129655,1.797983,0.002781,0.024105,0.015509,0.039821,-0.129292,-0.990807,-0.016063,-0.010616,-0.002647,23.473623,13.104383,-66.147552,,,,,,,
1508076509.706625,0.040411,0.129283,1.797925,-0.034862,0.047622,-0.022124,0.040063,-0.128923,-0.990845,-0.010949,-0.002349,-0.004638,23.483015,13.094408,-66.146194,,,,,,,
1508076509.726624,0.041406,0.128803,1.797346,-0.022051,0.049763,-0.029629,0.041052,-0.128447,-0.990866,-0.002370,-0.004060,-0.002023,23.508625,13.130994,-66.129845,,,,,,,
1508076509.746638,0.042459,0.128752,1.796934,-0.002736,0.043346,-0.018887,0.042095,-0.128397,-0.990829,0.003666,-0.003760,-0.002213,23.563843,13.158063,-66.104805,,,,,,,
1508076509.766644,0.043229,0.129303,1.796575,0.015578,0.011370,-0.010973,0.042855,-0.128943,-0.990726,0.008415,-0.011453,0.013690,23.626043,13.153156,-66.083572,,,,,,,
1508076509.786625,0.043550,0.129673,1.796439,-0.002589,0.006045,-0.008750,0.043170,-0.129310,-0.990664,-0.000797,-0.002602,0.015765,23.656097,13.114450,-66.080513,,,,,,,
1508076509.806658,0.043631,0.129313,1.796039,-0.021835,-0.015224,-0.023355,0.043253,-0.128953,-0.990707,0.006811,0.004625,0.008880,23.659010,13.120574,-66.078255,,,,,,,
1508076509.826663,0.044189,0.128434,1.795599,-0.029388,0.017780,-0.012099,0.043810,-0.128081,-0.990796,0.009183,0.010085,-0.003025,23.666365,13.185249,-66.062744,,,,,,,
1508076509.846659,0.044851,0.127316,1.795625,-0.024028,0.030531,0.003706,0.044474,-0.126972,-0.990909,0.002539,0.016788,-0.001050,23.704884,13.247171,-66.036545,,,,,,,
1508076509.866676,0.045641,0.125869,1.795396,-0.032760,0.055090,-0.025434,0.045264,-0.125537,-0.991056,-0.007102,0.022815,-0.005206,23.748606,13.330012,-66.004158,,,,,,,
1508076509.886682,0.046942,0.124592,1.794848,-0.016648,0.040161,-0.018832,0.046561,-0.124270,-0.991155,0.010903,0.016222,-0.003397,23.820650,13.453816,-65.953056,,,,,,,
1508076509.906687,0.047856,0.124354,1.794986,0.003878,0.023025,0.026185,0.047468,-0.124034,-0.991142,0.005907,0.003169,-0.000145,23.845816,13.483532,-65.937889,,,,,,,
1508076509.926695,0.047480,0.124521,1.795776,0.008312,-0.014288,0.039519,0.047094,-0.124199,-0.991139,-0.010580,0.000588,0.011693,23.914431,13.486022,-65.912529,,,,,,,
1508076509.946701,0.046509,0.124582,1.796384,-0.001428,-0.005715,0.013811,0.046132,-0.124260,-0.991177,-0.015614,0.003853,0.022488,23.869480,13.453244,-65.935516,,,,,,,
1508076509.966680,0.046293,0.124575,1.796285,-0.022006,0.040159,-0.020960,0.045918,-0.124253,-0.991188,-0.007481,-0.004409,0.015876,23.829845,13.453491,-65.949806,,,,,,,
1508076509.986713,0.047593,0.123672,1.795786,-0.054207,0.068939,-0.025619,0.047212,-0.123357,-0.991239,0.002410,-0.001521,0.004407,23.864269,13.486852,-65.930542,,,,,,,
1508076510.006700,0.048903,0.122913,1.795490,-0.008009,0.026282,-0.006908,0.048515,-0.122604,-0.991269,0.008095,0.004241,-0.002353,23.937012,13.547711,-65.891678,,,,,,,
1508076510.026725,0.048881,0.123859,1.795480,0.036038,-0.020619,0.003336,0.048487,-0.123542,-0.991154,-0.004923,-0.014229,0.015370,23.998194,13.552322,-65.868469,,,,,,,
1508076510.046723,0.048512,0.124795,1.795564,0.018864,-0.004632,0.000985,0.048116,-0.124472,-0.991056,-0.007421,-0.015436,0.014798,23.976503,13.493589,-65.888428,,,,,,,
1508076510.066732,0.048475,0.125448,1.795364,-0.007925,-0.005663,-0.012842,0.048076,-0.125120,-0.990976,0.003545,-0.014224,0.020288,23.960894,13.429166,-65.907257,,,,,,,
1508076510.086730,0.048606,0.125420,1.794962,-0.045457,0.005032,-0.028963,0.048205,-0.125091,-0.990973,0.000867,-0.013626,0.017127,23.958574,13.415514,-65.910889,,,,,,,
1508076510.106750,0.048906,0.124184,1.794156,-0.080834,0.006144,-0.048146,0.048510,-0.123865,-0.991113,0.004560,-0.003149,-0.001304,23.955902,13.463795,-65.902016,,,,,,,
1508076510.126755,0.049693,0.122733,1.793493,-0.047492,-0.016293,-0.015858,0.049299,-0.122425,-0.991253,0.027194,0.002979,-0.011677,23.971754,13.611101,-65.865982,,,,,,,
1508076510.146762,0.049828,0.121965,1.793395,-0.017493,-0.013132,-0.000998,0.049437,-0.121662,-0.991340,0.006196,0.003926,-0.012963,24.006157,13.668205,-65.841621,,,,,,,
1508076510.166759,0.049473,0.121621,1.793375,0.005956,0.010309,-0.007754,0.049088,-0.121322,-0.991399,-0.009507,0.005721,-0.009776,23.987770,13.705563,-65.840561,,,,,,,
1508076510.186774,0.050279,0.121854,1.793067,-0.011275,0.038028,-0.016673,0.049885,-0.121553,-0.991331,0.010250,-0.011565,-0.010531,24.002256,13.709772,-65.834404,,,,,,,
1508076510.206766,0.051543,0.121626,1.792830,-0.022993,0.034813,-0.003822,0.051140,-0.121327,-0.991294,0.010704,-0.003933,-0.005913,24.067661,13.710011,-65.810463,,,,,,,
1508076510.226787,0.052034,0.121123,1.792858,-0.010143,0.031613,-0.003786,0.051630,-0.120828,-0.991330,-0.008401,0.004952,-0.002124,24.125706,13.741018,-65.782738,,,,,,,
1508076510.246793,0.052439,0.121137,1.792625,0.006965,0.023110,-0.015404,0.052031,-0.120841,-0.991307,-0.001540,-0.002007,0.000218,24.152617,13.763588,-65.768143,,,,,,,
1508076510.266794,0.053260,0.121219,1.792324,-0.015462,0.016711,-0.007831,0.052844,-0.120923,-0.991254,0.011410,-0.004703,-0.006670,24.180267,13.755007,-65.759781,,,,,,,
1508076510.286806,0.053824,0.120575,1.792332,-0.014317,0.007096,0.007235,0.053407,-0.120283,-0.991302,0.008742,0.009916,-0.007004,24.225744,13.781172,-65.737556,,,,,,,
1508076510.306812,0.054144,0.120044,1.792616,0.001786,0.002807,0.020081,0.053728,-0.119756,-0.991349,0.007627,0.012029,-0.001709,24.257544,13.821362,-65.717392,,,,,,,
1508076510.326815,0.054449,0.120521,1.793190,0.015822,-0.015354,0.041655,0.054028,-0.120230,-0.991275,0.003055,-0.011377,0.002078,24.299900,13.814349,-65.703224,,,,,,,
1508076510.346825,0.053445,0.120787,1.794196,-0.001195,-0.043060,0.048468,0.053030,-0.120493,-0.991297,-0.008642,-0.007604,0.000299,24.288233,13.772421,-65.716339,,,,,,,
1508076510.366830,0.051771,0.121064,1.795125,0.023425,-0.050518,0.044293,0.051369,-0.120769,-0.991351,-0.015328,0.002910,0.006670,24.227104,13.745729,-65.744476,,,,,,,
1508076510.386837,0.050412,0.121449,1.795813,-0.006715,-0.016379,0.020362,0.050020,-0.121151,-0.991373,-0.014589,0.003475,0.010080,24.113609,13.672317,-65.801491,,,,,,,
1508076510.406843,0.050000,0.120334,1.795878,-0.068927,-0.000324,-0.010747,0.049618,-0.120044,-0.991528,-0.014629,0.008273,0.013028,24.086824,13.695168,-65.806541,,,,,,,
1508076510.426846,0.050258,0.117758,1.795816,-0.086138,0.034820,-0.004846,0.049889,-0.117486,-0.991821,-0.002358,0.028649,0.000701,24.056923,13.795236,-65.796585,,,,,,,
1508076510.446855,0.051042,0.115324,1.796009,-0.001402,-0.004671,0.024453,0.050681,-0.115068,-0.992064,0.008310,0.024660,0.000609,24.124996,14.052286,-65.717209,,,,,,,
1508076510.466834,0.050333,0.115503,1.796956,0.026576,-0.020726,0.058786,0.049976,-0.115246,-0.992079,-0.009190,0.020626,0.004973,24.125906,14.056595,-65.715958,,,,,,,
1508076510.486868,0.048731,0.114605,1.798092,-0.013111,-0.015351,0.036346,0.048392,-0.114354,-0.992261,-0.033103,0.034764,0.016324,24.076473,14.060942,-65.733154,,,,,,,
1508076510.506874,0.049102,0.114206,1.798227,-0.020877,0.032668,-0.004864,0.048763,-0.113957,-0.992288,-0.012813,0.035222,0.021158,24.043480,14.101349,-65.736572,,,,,,,
1508076510.526881,0.049318,0.113532,1.798324,-0.014308,0.000674,0.012655,0.048980,-0.113288,-0.992354,-0.004730,0.021003,0.029464,24.069458,14.120890,-65.722870,,,,,,,
1508076510.546886,0.049054,0.113192,1.798981,-0.009932,-0.003640,0.038306,0.048720,-0.112950,-0.992405,-0.013656,0.010701,0.033467,24.071663,14.153385,-65.715080,,,,,,,
1508076510.566874,0.047747,0.112863,1.799847,-0.047147,-0.080336,0.041579,0.047425,-0.112623,-0.992505,0.003142,-0.021868,0.023832,24.022148,14.154516,-65.732948,,,,,,,
1508076510.586900,0.045730,0.110924,1.800797,-0.124123,-0.100561,0.044063,0.045433,-0.110697,-0.992815,-0.002083,-0.013052,0.020952,23.943789,14.207675,-65.750061,,,,,,,
1508076510.606904,0.043383,0.108329,1.801758,-0.132720,-0.096284,0.036543,0.043115,-0.108117,-0.993203,-0.017221,0.004403,0.012566,23.841854,14.308106,-65.765327,,,,,,,
1508076510.626884,0.041038,0.106574,1.802606,-0.035487,-0.051568,0.033689,0.040794,-0.106373,-0.993489,-0.037223,0.008808,-0.004222,23.678028,14.508766,-65.780548,,,,,,,
1508076510.646918,0.040312,0.107023,1.802842,0.041377,-0.035527,-0.007121,0.040071,-0.106818,-0.993471,-0.030107,-0.004327,-0.001860,23.593153,14.517689,-65.809074,,,,,,,
1508076510.666923,0.039851,0.107328,1.802013,-0.003772,-0.018376,-0.055319,0.039612,-0.107122,-0.993456,-0.020813,-0.013590,0.008334,23.557215,14.483221,-65.829544,,,,,,,
1508076510.686930,0.039261,0.106913,1.800697,-0.025226,-0.021531,-0.074451,0.039027,-0.106710,-0.993524,-0.022227,0.014562,0.016290,23.467398,14.527573,-65.851845,,,,,,,
1508076510.706937,0.038427,0.106069,1.798791,-0.012535,-0.016130,-0.115058,0.038201,-0.105870,-0.993646,-0.024026,0.020161,0.028543,23.423389,14.580400,-65.855843,,,,,,,
1508076510.726942,0.038449,0.104905,1.796025,-0.024707,0.070238,-0.158953,0.038228,-0.104713,-0.993767,-0.021397,0.014808,0.023690,23.311703,14.684712,-65.872284,,,,,,,
1508076510.746948,0.040490,0.103700,1.792500,-0.057994,0.084140,-0.181522,0.040262,-0.103514,-0.993813,0.042777,-0.002260,0.026909,23.342985,14.887972,-65.815552,,,,,,,
1508076510.766955,0.042042,0.102114,1.789519,-0.075891,0.043558,-0.127605,0.041811,-0.101936,-0.993912,0.044874,0.003700,0.035996,23.381268,15.013389,-65.773460,,,,,,,
1508076510.786961,0.042908,0.100360,1.787652,-0.078637,-0.051354,-0.070779,0.042679,-0.100191,-0.994052,0.034606,0.013674,0.033176,23.458641,15.144320,-65.715874,,,,,,,
1508076510.806967,0.041750,0.098453,1.786539,-0.075450,-0.036458,-0.063533,0.041536,-0.098294,-0.994290,-0.012712,0.012815,0.012479,23.343250,15.349665,-65.709320,,,,,,,
1508076510.826966,0.041857,0.096518,1.784903,-0.102495,0.021148,-0.101669,0.041651,-0.096368,-0.994474,-0.021631,0.010186,0.010984,23.284388,15.474005,-65.701042,,,,,,,
1508076510.846964,0.043159,0.094813,1.782572,-0.067387,0.061670,-0.127874,0.042952,-0.094671,-0.994582,-0.012862,0.011511,0.020186,23.281845,15.606532,-65.670586,,,,,,,
1508076510.866986,0.044404,0.093073,1.780021,-0.103719,0.038256,-0.133905,0.044197,-0.092939,-0.994690,0.015510,0.003812,0.022141,23.333651,15.841650,-65.595856,,,,,,,
1508076510.886992,0.045059,0.090236,1.777274,-0.145429,0.016987,-0.146361,0.044861,-0.090114,-0.994921,0.016068,0.007182,0.025408,23.328899,16.007118,-65.557373,,,,,,,
1508076510.906998,0.045742,0.087395,1.774802,-0.136630,-0.024628,-0.110576,0.045551,-0.087284,-0.995142,0.024090,-0.017605,0.002878,23.343100,16.197384,-65.505562,,,,,,,
1508076510.927005,0.044050,0.084786,1.773141,-0.116075,-0.075812,-0.088523,0.043878,-0.084685,-0.995441,-0.024102,-0.003816,-0.005505,23.227818,16.539309,-65.461090,,,,,,,
1508076510.947011,0.042468,0.082914,1.770627,-0.083114,-0.087387,-0.164087,0.042309,-0.082819,-0.995666,-0.032269,-0.000646,0.006546,23.079327,16.668171,-65.480919,,,,,,,
1508076510.967016,0.042067,0.080239,1.766224,-0.166074,0.005488,-0.253875,0.041919,-0.080152,-0.995901,-0.000354,-0.007494,0.023977,22.953537,16.808748,-65.489197,,,,,,,
1508076510.987021,0.044773,0.075421,1.760890,-0.241369,0.119524,-0.270401,0.044630,-0.075349,-0.996158,0.055299,0.007585,-0.017834,22.908150,17.338867,-65.366776,,,,,,,
1508076511.007030,0.046786,0.070797,1.756485,-0.197087,0.054400,-0.203379,0.046652,-0.070738,-0.996403,0.061991,0.002927,-0.023372,22.948740,17.659153,-65.266716,,,,,,,
1508076511.027036,0.048430,0.067699,1.752935,-0.121882,-0.014911,-0.173640,0.048300,-0.067647,-0.996539,0.017618,-0.005000,-0.017285,23.025196,17.925701,-65.167046,,,,,,,
1508076511.047037,0.048485,0.065967,1.748813,-0.105180,0.050204,-0.244973,0.048360,-0.065919,-0.996652,-0.013524,-0.024230,0.022577,22.914186,18.298529,-65.102524,,,,,,,
1508076511.067048,0.051489,0.063323,1.743849,-0.139751,0.158872,-0.247589,0.051363,-0.063281,-0.996673,0.022734,-0.034940,0.012817,22.913467,18.442711,-65.062080,,,,,,,
1508076511.087054,0.054441,0.059567,1.739130,-0.197315,0.093890,-0.239139,0.054318,-0.059531,-0.996747,0.062427,-0.039605,-0.014880,22.996792,18.664137,-64.969467,,,,,,,
1508076511.107061,0.056139,0.056062,1.735252,-0.191388,-0.029797,-0.175505,0.056021,-0.056033,-0.996856,0.029062,0.008899,-0.061921,23.093510,19.150398,-64.793411,,,,,,,
1508076511.127051,0.055984,0.053693,1.732408,-0.044777,0.007375,-0.137767,0.055875,-0.053667,-0.996994,0.013690,0.023394,-0.062698,23.017719,19.366814,-64.756050,,,,,,,
1508076511.147073,0.056813,0.054158,1.729805,0.086870,0.013704,-0.121964,0.056700,-0.054131,-0.996923,0.026629,-0.000892,-0.057124,23.002602,19.487633,-64.725159,,,,,,,
1508076511.167079,0.057487,0.055951,1.726946,0.030030,0.024434,-0.152999,0.057365,-0.055922,-0.996786,0.009926,-0.026979,-0.024607,22.954559,19.440136,-64.756493,,,,,,,
1508076511.187084,0.059479,0.054637,1.723597,-0.106267,0.132106,-0.177917,0.059355,-0.054610,-0.996742,-0.004210,-0.024080,-0.035729,22.971603,19.451046,-64.747177,,,,,,,
1508076511.207074,0.062398,0.052059,1.720123,-0.104097,0.124644,-0.175678,0.062273,-0.052035,-0.996702,0.018858,-0.003141,-0.045474,23.042599,19.611454,-64.673515,,,,,,,
1508076511.227071,0.064973,0.051396,1.717403,0.034354,0.061626,-0.105558,0.064842,-0.051373,-0.996572,0.026009,-0.000049,-0.042597,23.120144,19.787069,-64.592300,,,,,,,
1508076511.247105,0.065115,0.053753,1.715921,0.151435,-0.029057,-0.051016,0.064975,-0.053727,-0.996439,0.011960,-0.010955,-0.014516,23.223845,19.837229,-64.539688,,,,,,,
1508076511.267110,0.064768,0.056601,1.714618,0.052883,-0.009823,-0.068282,0.064619,-0.056571,-0.996305,-0.006361,-0.033089,-0.002596,23.161505,19.600983,-64.634201,,,,,,,
1508076511.287116,0.065127,0.056019,1.712862,-0.026629,0.059509,-0.105482,0.064979,-0.055990,-0.996315,-0.011635,0.006338,-0.021737,23.149023,19.627722,-64.630562,,,,,,,
1508076511.307123,0.066928,0.056101,1.710437,0.034219,0.087229,-0.125123,0.066773,-0.056071,-0.996191,-0.004609,-0.003057,-0.022958,23.161364,19.693048,-64.606262,,,,,,,
1508076511.327129,0.068175,0.056857,1.708020,0.051553,0.032860,-0.109423,0.068013,-0.056826,-0.996065,0.014568,-0.008695,-0.015654,23.206497,19.704395,-64.586609,,,,,,,
1508076511.347135,0.069166,0.059801,1.706391,0.089362,-0.018396,-0.048995,0.068988,-0.059765,-0.995826,-0.000872,-0.025623,-0.022439,23.263222,19.605871,-64.596184,,,,,,,
1508076511.367142,0.068209,0.062175,1.705600,0.089401,-0.017358,-0.037280,0.068024,-0.062135,-0.995747,-0.017930,-0.022018,-0.023510,23.227001,19.484398,-64.645950,,,,,,,
1508076511.387147,0.066846,0.064594,1.704304,0.099841,0.022134,-0.082644,0.066657,-0.064549,-0.995686,-0.024833,-0.009197,-0.015224,23.114042,19.345560,-64.728081,,,,,,,
1508076511.407145,0.067632,0.067555,1.702003,0.092153,0.050968,-0.119311,0.067426,-0.067504,-0.995438,0.008990,-0.015184,-0.001159,23.035921,19.147282,-64.814827,,,,,,,
1508076511.427161,0.069110,0.069239,1.699671,0.073014,0.033889,-0.097723,0.068889,-0.069184,-0.995223,0.016819,-0.009429,-0.001512,23.065649,19.076935,-64.824997,,,,,,,
1508076511.447166,0.070041,0.070968,1.698057,0.090457,-0.029041,-0.056304,0.069807,-0.070909,-0.995037,0.016359,0.000154,0.006176,23.132111,19.012733,-64.820183,,,,,,,
1508076511.467173,0.069502,0.072594,1.697189,0.093692,-0.006730,-0.027840,0.069264,-0.072530,-0.994958,-0.011448,0.009908,0.012124,23.094454,18.872398,-64.874596,,,,,,,
1508076511.487179,0.068958,0.074693,1.696627,0.132278,-0.023794,-0.023356,0.068712,-0.074624,-0.994842,-0.010103,0.008614,0.019805,23.060028,18.797005,-64.908722,,,,,,,
1508076511.507184,0.068368,0.077520,1.695919,0.116212,-0.021654,-0.026574,0.068110,-0.077442,-0.994668,-0.010904,-0.015896,0.039727,23.006382,18.672695,-64.963615,,,,,,,
1508076511.527190,0.067656,0.079306,1.695426,0.056367,-0.034447,-0.014614,0.067392,-0.079223,-0.994576,-0.010279,-0.008698,0.044030,22.944111,18.484594,-65.039391,,,,,,,
1508076511.547198,0.066893,0.079916,1.695023,0.010335,-0.040804,-0.026217,0.066630,-0.079831,-0.994579,-0.010966,-0.009341,0.039104,22.891581,18.419632,-65.076317,,,,,,,
1508076511.567201,0.066135,0.079358,1.694099,-0.038987,-0.038603,-0.055002,0.065879,-0.079275,-0.994674,-0.012900,0.001073,0.030745,22.843845,18.419250,-65.093193,,,,,,,
1508076511.587210,0.065688,0.078739,1.693238,-0.028233,-0.036510,-0.036913,0.065438,-0.078657,-0.994752,0.007911,-0.008501,0.013840,22.740398,18.526035,-65.099113,,,,,,,
1508076511.607193,0.064856,0.078539,1.692919,-0.013028,-0.072802,-0.001210,0.064610,-0.078458,-0.994821,0.007289,-0.007281,0.008676,22.708267,18.544376,-65.105110,,,,,,,
1508076511.627221,0.062695,0.078703,1.693113,0.015021,-0.134619,0.012461,0.062460,-0.078622,-0.994946,-0.001211,0.004205,0.014004,22.661339,18.535856,-65.123878,,,,,,,
1508076511.647229,0.059321,0.079064,1.693290,-0.011879,-0.095184,0.002313,0.059101,-0.078982,-0.995123,-0.016941,-0.001340,-0.002970,22.383053,18.500011,-65.230232,,,,,,,
1508076511.667235,0.058019,0.077807,1.693161,-0.047456,-0.036534,-0.025168,0.057811,-0.077729,-0.995297,-0.009151,0.014100,-0.016773,22.282801,18.526026,-65.257156,,,,,,,
1508076511.687241,0.057369,0.077092,1.692219,0.026272,-0.031173,-0.051959,0.057167,-0.077016,-0.995390,0.008873,0.009725,-0.028460,22.218616,18.640625,-65.246414,,,,,,,
1508076511.707247,0.057201,0.078283,1.691201,0.065809,-0.007755,-0.048063,0.056995,-0.078203,-0.995307,0.003918,-0.003081,0.001807,22.138329,18.613152,-65.281540,,,,,,,
1508076511.727254,0.057837,0.079118,1.689834,0.029180,0.044508,-0.076518,0.057624,-0.079035,-0.995205,0.005471,-0.007772,-0.001133,22.135256,18.567385,-65.295616,,,,,,,
1508076511.747258,0.059831,0.080227,1.688203,0.034543,0.050886,-0.068084,0.059603,-0.080141,-0.995000,0.019224,-0.015333,-0.007274,22.178875,18.541161,-65.288261,,,,,,,
1508076511.767248,0.061428,0.082513,1.687151,0.080723,0.029514,-0.037952,0.061180,-0.082419,-0.994718,-0.000420,-0.013162,0.000364,22.316166,18.427155,-65.273750,,,,,,,
1508076511.787271,0.062104,0.084687,1.685944,0.101983,0.050862,-0.062803,0.061842,-0.084586,-0.994495,-0.006559,-0.012185,0.009800,22.330597,18.335377,-65.294662,,,,,,,
1508076511.807278,0.063872,0.087054,1.684535,0.060195,0.070051,-0.064116,0.063587,-0.086944,-0.994182,0.011135,-0.016907,0.010509,22.352743,18.209784,-65.322220,,,,,,,
1508076511.827284,0.065921,0.088274,1.683365,0.041065,0.057221,-0.036192,0.065617,-0.088160,-0.993943,0.029674,-0.012869,0.004380,22.517296,18.078695,-65.302124,,,,,,,
1508076511.847292,0.066222,0.089017,1.683137,0.038173,-0.013152,-0.002114,0.065912,-0.088900,-0.993857,0.021292,-0.008589,0.003333,22.551689,18.047585,-65.298851,,,,,,,
1508076511.867297,0.066273,0.089919,1.682994,0.040302,-0.004636,0.002026,0.065957,-0.089797,-0.993774,0.005027,0.000045,0.008727,22.557728,18.009373,-65.307312,,,,,,,
1508076511.887303,0.067511,0.090664,1.682941,0.031640,0.027333,-0.000564,0.067183,-0.090540,-0.993624,0.022203,-0.011053,-0.011899,22.590036,17.941841,-65.314735,,,,,,,
1508076511.907309,0.068325,0.091774,1.683085,0.030724,0.008104,0.028505,0.067985,-0.091645,-0.993468,0.025185,-0.020995,-0.015748,22.642250,17.894905,-65.309532,,,,,,,
1508076511.927289,0.068612,0.092956,1.683906,0.038295,0.001676,0.046720,0.068262,-0.092822,-0.993340,-0.000238,-0.006405,-0.017555,22.715736,17.805758,-65.308380,,,,,,,
1508076511.947306,0.067945,0.094097,1.684552,0.093860,0.002769,0.024270,0.067593,-0.093958,-0.993279,-0.007183,-0.005255,0.005135,22.706135,17.702225,-65.339859,,,,,,,
1508076511.967328,0.068447,0.096660,1.684806,0.087291,0.048584,0.019346,0.068074,-0.096510,-0.993001,-0.007390,-0.020952,0.002172,22.717628,17.583128,-65.368011,,,,,,,
1508076511.987333,0.069088,0.098285,1.684896,0.030597,0.023070,0.000566,0.068700,-0.098126,-0.992800,0.000407,-0.009418,-0.001432,22.756178,17.428177,-65.396088,,,,,,,
1508076512.007340,0.069416,0.098051,1.684804,0.033697,0.046525,-0.010440,0.069028,-0.097894,-0.992800,-0.004788,0.015817,-0.005460,22.799427,17.378712,-65.394188,,,,,,,
1508076512.027347,0.070542,0.098787,1.684645,0.065868,0.041158,0.006674,0.070140,-0.098627,-0.992650,0.009251,0.015329,-0.004024,22.837078,17.363689,-65.385048,,,,,,,
1508076512.047353,0.071866,0.100525,1.685035,0.106682,0.028298,0.042017,0.071442,-0.100355,-0.992383,0.011962,0.000380,0.002134,22.917467,17.330822,-65.365639,,,,,,,
1508076512.067359,0.071253,0.103465,1.686338,0.113386,-0.018663,0.085346,0.070812,-0.103281,-0.992128,-0.014828,-0.007864,0.011980,22.986683,17.061911,-65.412064,,,,,,,
1508076512.087363,0.070039,0.105873,1.687909,0.089831,-0.032474,0.068504,0.069590,-0.105675,-0.991963,-0.018824,-0.003974,0.016560,22.986683,17.061911,-65.412064,,,,,,,
1508076512.107347,0.068680,0.106857,1.688273,0.011345,-0.000333,-0.017206,0.068235,-0.106654,-0.991952,-0.025510,0.001140,0.033059,22.883799,16.745352,-65.529839,,,,,,,
1508076512.127360,0.069830,0.105942,1.687583,-0.021136,0.099855,-0.042094,0.069382,-0.105744,-0.991970,-0.014297,0.020554,0.012646,22.872604,16.758343,-65.530426,,,,,,,
1508076512.147384,0.071764,0.106218,1.686850,0.080842,0.020948,-0.013303,0.071298,-0.106019,-0.991805,0.023672,0.007050,-0.018129,22.937469,16.815010,-65.493225,,,,,,,
1508076512.167390,0.070420,0.108193,1.687180,0.098475,-0.092080,0.041638,0.069950,-0.107982,-0.991689,0.031445,-0.007039,-0.004863,22.967497,16.706377,-65.510498,,,,,,,
1508076512.187369,0.068787,0.109102,1.687996,0.000957,-0.053690,0.032624,0.068324,-0.108886,-0.991703,-0.015804,0.012801,0.012532,22.868996,16.597624,-65.572571,,,,,,,
1508076512.207404,0.068744,0.107722,1.688049,-0.059493,0.067861,-0.018143,0.068291,-0.107513,-0.991855,-0.022195,0.020828,0.017917,22.846142,16.599997,-65.579941,,,,,,,
1508076512.227408,0.070530,0.107726,1.687627,0.048615,0.060371,-0.014916,0.070063,-0.107518,-0.991731,0.004064,0.004659,-0.023817,22.939501,16.706646,-65.520241,,,,,,,
1508076512.247416,0.070107,0.110257,1.687637,0.119828,-0.092056,0.026694,0.069624,-0.110034,-0.991486,0.023928,-0.026303,-0.017883,22.950966,16.639606,-65.533279,,,,,,,
1508076512.267422,0.067975,0.112817,1.688178,0.115597,-0.103781,0.031132,0.067491,-0.112578,-0.991348,-0.018617,-0.016099,-0.007797,22.872061,16.429359,-65.613869,,,,,,,
1508076512.287426,0.066601,0.113618,1.687873,-0.015599,0.028495,-0.048527,0.066123,-0.113374,-0.991350,-0.029593,-0.002318,0.009523,22.752483,16.289799,-65.690193,,,,,,,
1508076512.307423,0.068891,0.112232,1.686380,-0.070597,0.127658,-0.089377,0.068404,-0.111997,-0.991351,-0.006133,0.036481,-0.015652,22.758427,16.345249,-65.674355,,,,,,,
1508076512.327440,0.071754,0.111850,1.684840,0.108524,0.041222,-0.036015,0.071245,-0.111617,-0.991194,0.042082,0.035033,-0.018709,22.884262,16.447021,-65.605186,,,,,,,
1508076512.347446,0.070681,0.115444,1.685376,0.195962,-0.104941,0.066272,0.070152,-0.115187,-0.990864,0.031349,-0.002504,-0.014492,22.952816,16.287861,-65.620941,,,,,,,
1508076512.367441,0.067354,0.119433,1.686459,0.160683,-0.126221,0.057010,0.066824,-0.119149,-0.990625,-0.039602,-0.012855,0.031564,22.772064,15.987850,-65.757553,,,,,,,
1508076512.387459,0.066506,0.120924,1.686834,0.016658,0.024132,-0.002642,0.065972,-0.120629,-0.990503,-0.038750,-0.011374,0.031442,22.687288,15.846292,-65.821098,,,,,,,
1508076512.407450,0.068329,0.120676,1.685854,0.010842,0.103103,-0.074159,0.067780,-0.120383,-0.990411,-0.030548,0.015052,-0.005835,22.707798,15.827915,-65.818443,,,,,,,
1508076512.427469,0.069895,0.121791,1.684228,0.111519,0.073246,-0.072735,0.069320,-0.121490,-0.990169,-0.008163,-0.003937,-0.004704,22.833725,15.838793,-65.772240,,,,,,,
1508076512.447478,0.070284,0.124366,1.683299,0.135512,-0.015292,-0.013889,0.069684,-0.124045,-0.989827,0.001834,-0.017983,-0.001293,22.863386,15.776628,-65.776878,,,,,,,
1508076512.467482,0.069306,0.127649,1.683482,0.125053,-0.047336,0.030302,0.068687,-0.127303,-0.989483,-0.008720,-0.019502,0.010906,22.829779,15.517293,-65.850204,,,,,,,
1508076512.487467,0.068353,0.129216,1.683991,0.035113,-0.032393,0.026954,0.067730,-0.128856,-0.989348,-0.022396,-0.021168,0.022886,22.761501,15.329926,-65.917694,,,,,,,
1508076512.507496,0.068601,0.129053,1.683785,-0.009189,0.034870,-0.044364,0.067977,-0.128695,-0.989352,-0.027053,0.003009,0.023363,22.749146,15.310602,-65.926445,,,,,,,
1508076512.527503,0.068762,0.128776,1.681487,0.167077,0.027553,-0.138225,0.068139,-0.128420,-0.989376,-0.006463,0.055437,0.010128,22.721758,15.429388,-65.908188,,,,,,,
1508076512.547495,0.068882,0.132001,1.679345,0.130037,-0.024794,-0.058532,0.068228,-0.131618,-0.988950,0.043664,-0.028844,0.011334,22.720188,15.390012,-65.917938,,,,,,,
1508076512.567516,0.069390,0.133942,1.678658,0.009437,-0.072794,-0.006563,0.068714,-0.133542,-0.988658,0.032971,-0.005252,0.014171,22.745604,15.104133,-65.975273,,,,,,,
1508076512.587521,0.068097,0.133944,1.678668,0.012605,-0.046187,0.004778,0.067435,-0.133544,-0.988746,-0.014304,0.026824,0.021369,22.629730,15.097118,-66.016708,,,,,,,
1508076512.607523,0.067208,0.134521,1.679350,0.063957,-0.000476,0.043530,0.066551,-0.134116,-0.988728,-0.017006,0.003196,0.003682,22.567661,15.086902,-66.040291,,,,,,,
1508076512.627534,0.066879,0.137270,1.679939,0.164608,-0.029250,0.037474,0.066201,-0.136840,-0.988379,-0.014687,-0.010514,0.013296,22.577839,14.958950,-66.065918,,,,,,,
1508076512.647539,0.065412,0.141242,1.680744,0.122928,-0.035652,0.046129,0.064715,-0.140773,-0.987925,-0.025576,-0.036320,0.034159,22.502241,14.608750,-66.169991,,,,,,,
1508076512.667532,0.064323,0.142569,1.681633,0.016006,-0.061196,0.048713,0.063626,-0.142087,-0.987807,-0.014554,-0.047916,0.040603,22.473898,14.491013,-66.205498,,,,,,,
1508076512.687553,0.062307,0.142552,1.682141,-0.144609,-0.097238,-0.019953,0.061635,-0.142070,-0.987936,-0.017827,-0.022328,0.009634,22.385433,14.362549,-66.263443,,,,,,,
1508076512.707558,0.061702,0.139924,1.679792,-0.080200,0.019177,-0.180569,0.061061,-0.139468,-0.988342,-0.054774,0.056933,0.015457,22.231211,14.622305,-66.258553,,,,,,,
1508076512.727548,0.063485,0.139661,1.675449,0.035123,0.056514,-0.221716,0.062825,-0.139208,-0.988268,-0.010991,0.056536,-0.004591,22.234144,14.733381,-66.232956,,,,,,,
1508076512.747571,0.065461,0.139673,1.671403,0.001002,0.070270,-0.171774,0.064777,-0.139219,-0.988141,0.073467,0.030287,-0.015094,22.251856,14.796528,-66.212929,,,,,,,
1508076512.767576,0.066144,0.139663,1.669344,0.006939,-0.007712,-0.061885,0.065452,-0.139209,-0.988098,0.062752,0.045764,-0.006577,22.276461,14.867906,-66.188660,,,,,,,
1508076512.787577,0.066178,0.139962,1.669126,0.014626,0.016621,0.020928,0.065483,-0.139506,-0.988054,0.012536,0.019099,0.020082,22.259565,14.863302,-66.195374,,,,,,,
1508076512.807590,0.066588,0.139910,1.669978,-0.002459,0.022982,0.037910,0.065888,-0.139454,-0.988034,0.009551,0.028141,0.005444,22.290487,14.849197,-66.188141,,,,,,,
1508076512.827595,0.066326,0.140948,1.669962,0.066043,-0.040844,-0.014531,0.065621,-0.140482,-0.987906,0.001503,0.022776,0.009986,22.318823,14.834692,-66.181839,,,,,,,
1508076512.847574,0.064943,0.140834,1.668957,-0.043211,-0.070523,-0.074798,0.064255,-0.140369,-0.988012,0.004791,0.004184,0.011373,22.210615,14.777615,-66.231003,,,,,,,
1508076512.867608,0.065097,0.138874,1.667525,-0.118425,0.046649,-0.063645,0.064425,-0.138428,-0.988275,-0.003344,-0.003265,0.010156,22.146564,14.868460,-66.232117,,,,,,,
1508076512.887587,0.066938,0.135896,1.667001,-0.159112,0.096650,-0.025953,0.066271,-0.135478,-0.988562,-0.002566,0.010661,-0.019739,22.175409,15.007025,-66.191193,,,,,,,
1508076512.907602,0.069102,0.132299,1.665741,0.017291,0.075432,-0.089757,0.068443,-0.131913,-0.988896,0.013252,0.051988,-0.041683,22.330215,15.286457,-66.075104,,,,,,,
1508076512.927612,0.071055,0.133872,1.664230,0.088019,0.089173,-0.045224,0.070360,-0.133472,-0.988552,0.024870,0.011997,-0.056538,22.330215,15.286457,-66.075104,,,,,,,
1508076512.947633,0.072845,0.135061,1.663860,0.040025,0.086961,0.001761,0.072118,-0.134650,-0.988265,0.043361,0.001502,-0.043366,22.491875,15.330173,-66.010117,,,,,,,
1508076512.967628,0.075074,0.134977,1.663895,0.020896,0.047546,0.007677,0.074322,-0.134567,-0.988113,-0.001064,0.017670,-0.004410,22.707577,15.292479,-65.944977,,,,,,,
1508076512.987645,0.076130,0.135011,1.663992,-0.010197,0.067794,0.007407,0.075364,-0.134601,-0.988030,-0.006837,0.015140,0.018028,22.707577,15.292479,-65.944977,,,,,,,
1508076513.007651,0.078086,0.134015,1.664127,0.030188,0.144506,-0.006531,0.077308,-0.133614,-0.988014,-0.016761,0.038979,0.001609,22.801476,15.347769,-65.899719,,,,,,,
1508076513.027659,0.080545,0.136743,1.664044,0.172789,0.085815,0.027268,0.079707,-0.136317,-0.987453,0.014012,-0.008305,0.016308,23.020679,15.277681,-65.839767,,,,,,,
1508076513.047665,0.082333,0.141070,1.664578,0.070299,0.028291,0.044174,0.081423,-0.140602,-0.986712,0.012068,-0.051384,0.053683,23.198387,14.930809,-65.856964,,,,,,,
1508076513.067669,0.082817,0.140454,1.665543,-0.085975,0.041117,0.041972,0.081908,-0.139993,-0.986759,-0.018629,-0.025672,0.057422,23.263313,14.862617,-65.849487,,,,,,,
1508076513.087669,0.083343,0.139183,1.666250,-0.086098,0.061394,0.021419,0.082441,-0.138734,-0.986892,-0.014021,-0.009062,0.021377,23.285505,14.904176,-65.832253,,,,,,,
1508076513.107683,0.083283,0.138566,1.666970,0.010549,-0.039853,0.034545,0.082389,-0.138123,-0.986982,-0.009910,-0.000625,-0.020739,23.354286,14.992949,-65.787712,,,,,,,
1508076513.127688,0.081527,0.139399,1.667350,0.047975,-0.055800,0.012356,0.080646,-0.138948,-0.987010,-0.019123,-0.009459,-0.022343,23.254366,14.942718,-65.834518,,,,,,,
1508076513.147679,0.080734,0.139830,1.667360,0.007134,-0.021654,-0.011568,0.079860,-0.139375,-0.987014,-0.013545,-0.004134,-0.059220,23.205532,14.901755,-65.861031,,,,,,,
1508076513.167702,0.080819,0.139745,1.666599,0.060285,0.051911,-0.052127,0.079944,-0.139290,-0.987019,-0.012103,0.020485,-0.094249,23.150318,14.936567,-65.872574,,,,,,,
1508076513.187708,0.082755,0.142045,1.665361,0.146818,0.108332,-0.044480,0.081828,-0.141567,-0.986541,0.004643,0.024319,-0.108064,23.191051,14.893073,-65.868095,,,,,,,
1508076513.207715,0.086697,0.145041,1.664188,0.250668,0.113594,-0.021177,0.085679,-0.144533,-0.985784,0.050078,0.016207,-0.103557,23.385679,14.607385,-65.863258,,,,,,,
1508076513.227720,0.088465,0.151287,1.663978,0.328078,0.068691,0.050858,0.087341,-0.150711,-0.984712,0.053833,-0.005753,-0.092177,23.573135,14.404645,-65.841080,,,,,,,
1508076513.247708,0.088716,0.157442,1.665621,0.276104,0.005687,0.134983,0.087504,-0.156793,-0.983748,0.037710,-0.010764,-0.064180,23.650463,14.065878,-65.886574,,,,,,,
1508076513.267710,0.089101,0.162578,1.667873,0.323031,0.055744,0.134221,0.087810,-0.161863,-0.982899,-0.036083,0.044370,0.007343,23.749208,13.469985,-65.975517,,,,,,,
1508076513.287727,0.090791,0.170204,1.669750,0.376304,0.118607,0.120474,0.089356,-0.169383,-0.981491,-0.033707,0.026119,0.033844,23.749208,13.469985,-65.975517,,,,,,,
1508076513.307744,0.092479,0.177511,1.671443,0.312145,0.098391,0.115484,0.090896,-0.176580,-0.980080,-0.002044,-0.020441,0.068017,23.968365,12.639370,-66.060562,,,,,,,
1508076513.327752,0.092978,0.184390,1.673995,0.191553,0.041865,0.161175,0.091270,-0.183347,-0.978802,-0.016182,-0.029285,0.091824,24.196262,11.968666,-66.102386,,,,,,,
1508076513.347758,0.092670,0.187550,1.677022,0.119989,-0.006045,0.157659,0.090914,-0.186453,-0.978248,-0.022631,-0.012491,0.097740,24.238831,11.611157,-66.150543,,,,,,,
1508076513.367763,0.091958,0.189869,1.679159,0.102675,-0.018681,0.086413,0.090178,-0.188730,-0.977880,-0.035323,0.008173,0.119481,24.261711,11.435007,-66.172836,,,,,,,
1508076513.387770,0.091315,0.191098,1.680307,0.018075,-0.027127,0.058875,0.089528,-0.189937,-0.977706,-0.000981,-0.045384,0.126113,24.254309,11.201215,-66.215530,,,,,,,
1508076513.407777,0.088838,0.190794,1.681570,-0.053191,-0.174107,0.056794,0.087111,-0.189639,-0.977982,0.005647,-0.048856,0.123108,24.210014,11.174555,-66.236237,,,,,,,
1508076513.427782,0.084243,0.188143,1.682522,-0.189054,-0.227260,0.019280,0.082659,-0.187035,-0.978869,-0.025683,-0.052817,0.138858,24.049124,11.208220,-66.289139,,,,,,,
1508076513.447784,0.079758,0.181627,1.682833,-0.418229,-0.223900,-0.033911,0.078363,-0.180630,-0.980424,-0.002878,-0.062885,0.050935,23.608913,11.645171,-66.372009,,,,,,,
1508076513.467795,0.074967,0.170714,1.682460,-0.600046,-0.281330,-0.057467,0.073808,-0.169886,-0.982696,0.033599,-0.089773,-0.015961,23.376984,12.135236,-66.366310,,,,,,,
1508076513.487801,0.066769,0.159152,1.682070,-0.498966,-0.465610,-0.072998,0.065876,-0.158481,-0.985162,0.053325,-0.100339,-0.204779,23.079657,12.747667,-66.355560,,,,,,,
1508076513.507792,0.057384,0.151787,1.683225,-0.331352,-0.466073,0.138011,0.056693,-0.151204,-0.986875,0.006173,-0.275401,-0.449404,22.322472,13.602830,-66.444748,,,,,,,
1508076513.527815,0.050415,0.145240,1.688994,-0.333880,-0.136211,0.318766,0.049863,-0.144730,-0.988214,0.029208,-0.351669,-0.803732,21.789692,13.981709,-66.542885,,,,,,,
1508076513.547819,0.050113,0.143051,1.695844,0.063483,0.101235,0.319289,0.049581,-0.142563,-0.988543,0.081843,-0.201095,-1.156476,21.780386,14.223198,-66.494728,,,,,,,
1508076513.567820,0.054172,0.156536,1.701126,1.083685,0.310840,0.314418,0.053483,-0.155898,-0.986324,0.113768,-0.156770,-1.223927,22.006189,13.847204,-66.499748,,,,,,,
1508076513.587833,0.058356,0.194115,1.708090,2.314191,0.206773,0.530397,0.057228,-0.192898,-0.979548,0.116570,-0.059650,-1.228658,22.492090,12.039417,-66.688774,,,,,,,
1508076513.607838,0.058242,0.254404,1.716698,3.311220,0.048662,0.634306,0.056335,-0.251669,-0.966172,0.087936,-0.050471,-0.920989,22.888306,7.388049,-67.229286,,,,,,,
1508076513.627845,0.056779,0.327319,1.726271,3.754112,0.109229,0.654422,0.053736,-0.321505,-0.945382,-0.032648,0.011050,-0.402534,23.018631,2.361261,-67.548508,,,,,,,
1508076513.647834,0.057996,0.404403,1.733786,3.827090,0.245839,0.514833,0.053288,-0.393470,-0.917792,-0.039967,0.080238,-0.255823,23.169327,-1.705774,-67.516716,,,,,,,
1508076513.667779,0.064605,0.479102,1.737463,3.621215,0.531773,0.314641,0.057291,-0.460983,-0.885558,-0.038202,0.179305,0.127928,23.634628,-8.337765,-66.858955,,,,,,,
1508076513.687791,0.077668,0.547089,1.737467,3.243894,0.658806,0.226712,0.066265,-0.520204,-0.851468,0.037448,0.275300,0.249539,24.402950,-13.090466,-65.813148,,,,,,,
1508076513.707789,0.088899,0.608320,1.737038,2.948138,0.463896,0.250020,0.072855,-0.571490,-0.817369,0.064154,0.377611,0.300065,24.402950,-13.090466,-65.813148,,,,,,,
1508076513.727784,0.094639,0.664038,1.737469,2.664416,0.184820,0.277739,0.074418,-0.616302,-0.783986,0.022734,0.553115,0.514333,25.483793,-21.053669,-63.289444,,,,,,,
1508076513.747809,0.096613,0.712428,1.737416,2.225654,0.114776,0.202310,0.073001,-0.653673,-0.753248,-0.049045,0.638094,0.638639,27.664314,-24.514490,-66.326103,,,,,,,
1508076513.767815,0.102228,0.751749,1.736953,1.814901,0.381268,0.161433,0.074547,-0.682917,-0.726682,-0.080605,0.693003,0.697202,27.705059,-26.000179,-65.740753,,,,,,,
1508076513.787821,0.111631,0.783242,1.736668,1.412407,0.433564,0.162043,0.078941,-0.705580,-0.704219,-0.073829,0.727614,0.779048,28.315275,-29.570118,-63.947472,,,,,,,
1508076513.807829,0.117550,0.806802,1.737133,1.010511,0.251566,0.134061,0.081136,-0.722079,-0.687037,-0.074696,0.768816,0.804407,28.603952,-30.896601,-63.187340,,,,,,,
1508076513.827835,0.120896,0.821367,1.737005,0.539873,0.103769,0.057651,0.082157,-0.732078,-0.676249,-0.125446,0.760505,0.838938,28.824875,-32.164558,-62.449928,,,,,,,
1508076513.847840,0.120879,0.824236,1.737878,-0.121235,0.012374,0.032815,0.081892,-0.734029,-0.674162,-0.174482,0.713033,0.815382,28.893106,-32.690113,-62.144756,,,,,,,
1508076513.867844,0.120660,0.814542,1.738470,-0.659832,0.006349,-0.082920,0.082597,-0.727412,-0.681212,-0.206193,0.667323,0.707595,27.827480,-32.159531,-60.217758,,,,,,,
1508076513.887854,0.120346,0.795827,1.737726,-1.085915,-0.032764,-0.180133,0.084002,-0.714443,-0.694633,-0.227633,0.636470,0.657890,27.851482,-31.703972,-60.447792,,,,,,,
1508076513.907858,0.125892,0.770752,1.732255,-1.250991,0.122290,-0.457364,0.090075,-0.696675,-0.711710,-0.266803,0.621754,0.414514,28.083504,-29.509043,-61.443596,,,,,,,
1508076513.927847,0.135747,0.743639,1.721039,-1.332965,0.155672,-0.627328,0.099605,-0.676971,-0.729239,-0.220546,0.520431,0.365515,28.396557,-28.123274,-61.947548,,,,,,,
1508076513.947872,0.148041,0.713193,1.710198,-1.507631,0.278146,-0.591653,0.111552,-0.654252,-0.748004,-0.166270,0.401460,0.285236,28.373962,-27.090607,-61.470043,,,,,,,
1508076513.967878,0.159889,0.683939,1.700791,-1.230621,0.333452,-0.583066,0.123401,-0.631851,-0.765203,-0.073688,0.370071,-0.058588,29.179981,-24.405066,-62.213104,,,,,,,
1508076513.987884,0.175387,0.667206,1.691111,-0.450507,0.485284,-0.432306,0.137071,-0.618793,-0.773503,-0.052308,0.130619,-0.199596,29.981174,-22.887108,-62.408798,,,,,,,
1508076514.007891,0.182526,0.663670,1.684739,-0.049999,-0.087312,-0.199313,0.142986,-0.616012,-0.774651,0.022511,-0.061951,-0.194251,30.458000,-22.454712,-62.334938,,,,,,,
1508076514.027895,0.173471,0.656001,1.683244,-0.707007,-0.721131,-0.113921,0.136777,-0.609953,-0.780545,0.088870,-0.412615,-0.092899,30.444820,-22.295891,-62.398361,,,,,,,
1508076514.047902,0.158324,0.626513,1.683537,-1.893335,-0.709770,-0.320058,0.127719,-0.586324,-0.799945,-0.001239,-0.549601,-0.003995,29.280876,-20.484488,-63.565437,,,,,,,
1508076514.067906,0.140664,0.570855,1.683302,-3.312628,-1.114948,-0.480527,0.117970,-0.540352,-0.833128,-0.010579,-0.668190,-0.052995,28.896198,-19.073595,-64.177536,,,,,,,
1508076514.087891,0.103587,0.483168,1.683410,-5.040252,-2.452314,-0.547272,0.091565,-0.464587,-0.880781,0.243579,-1.114240,-0.309176,26.562532,-11.730749,-66.890732,,,,,,,
1508076514.107908,0.027959,0.347321,1.679903,-8.090028,-4.725578,-0.669829,0.026286,-0.340380,-0.939921,0.334981,-1.439497,-0.408270,25.768015,-9.965107,-67.485222,,,,,,,
1508076514.127929,-0.059203,0.139093,1.662979,-11.455498,-3.243634,-0.350778,-0.058597,-0.138645,-0.988607,-0.182659,-0.936367,-0.006205,16.875275,6.546778,-70.639320,,,,,,,
1508076514.147934,-0.027919,-0.049485,1.650901,-5.898247,3.615920,-0.241166,-0.027881,0.049465,-0.998387,-1.018551,2.529514,-3.221859,14.884533,25.477629,-66.685005,,,,,,,
1508076514.167930,0.033950,-0.054996,1.662390,3.890642,1.989222,1.242311,0.033892,0.054968,-0.997913,-0.971316,2.354151,-2.383893,18.386469,29.442682,-64.129677,,,,,,,
1508076514.187947,0.026718,0.074391,1.687813,6.695247,-1.115839,1.378005,0.026640,-0.074323,-0.996878,0.342638,1.366818,-2.700036,20.818071,25.599472,-65.029411,,,,,,,
1508076514.207953,0.022574,0.221699,1.695306,7.487434,0.473332,0.290196,0.022020,-0.219887,-0.975277,0.787993,-0.136726,-1.078251,20.327158,10.822713,-69.189766,,,,,,,
1508076514.227953,0.033684,0.349945,1.701189,5.873263,0.750513,0.382288,0.031637,-0.342846,-0.938859,0.035563,-0.181645,-0.388839,20.933418,3.371056,-69.770889,,,,,,,
1508076514.247966,0.055831,0.453295,1.695335,4.791642,1.108834,-0.217093,0.050167,-0.437930,-0.897608,-0.150951,0.020084,-0.049108,22.056276,-4.729303,-69.344818,,,,,,,
1508076514.267971,0.086497,0.541260,1.686614,4.205337,1.398144,0.073450,0.074041,-0.515216,-0.853856,0.041606,0.105823,0.208394,24.156839,-12.624416,-67.635941,,,,,,,
1508076514.287971,0.114446,0.617044,1.681006,3.529042,1.105258,0.131520,0.093137,-0.578627,-0.810257,0.077303,0.194029,0.343704,25.488733,-16.737419,-66.239960,,,,,,,
1508076514.307984,0.137079,0.680952,1.672610,3.076148,0.721021,0.031868,0.106173,-0.629533,-0.769686,-0.037204,0.426026,0.440004,26.833778,-21.325022,-64.364120,,,,,,,
1508076514.327990,0.155619,0.739267,1.659672,2.890371,0.439034,-0.097195,0.114533,-0.673746,-0.730033,-0.019227,0.612452,0.561530,27.837080,-26.114193,-62.134487,,,,,,,
1508076514.347990,0.175664,0.793013,1.645186,2.627972,0.566839,-0.053000,0.122631,-0.712471,-0.690903,-0.061535,0.695976,0.658936,28.456264,-29.499475,-60.312275,,,,,,,
1508076514.367976,0.197663,0.839951,1.631793,2.230011,0.624294,0.030703,0.131082,-0.744610,-0.654502,-0.074259,0.713070,0.672141,28.820089,-31.032942,-59.362511,,,,,,,
1508076514.388008,0.212569,0.878891,1.627238,1.754418,0.476661,0.406406,0.134601,-0.770032,-0.623646,-0.035495,0.584637,0.650425,29.784109,-34.895798,-56.681026,,,,,,,
1508076514.407987,0.210073,0.909222,1.634436,1.242756,-0.023108,0.557988,0.128113,-0.789026,-0.600854,-0.104630,0.662134,0.689599,29.738897,-36.946205,-55.390652,,,,,,,
1508076514.428022,0.199849,0.929921,1.643097,0.793293,-0.204796,0.380756,0.118695,-0.801573,-0.585997,-0.156797,0.704344,0.708022,29.499067,-37.762737,-54.966621,,,,,,,
1508076514.448025,0.194328,0.939857,1.645709,0.250594,-0.135841,0.058140,0.113914,-0.807474,-0.578800,-0.283317,0.645883,0.736789,28.817137,-39.237652,-54.291138,,,,,,,
1508076514.468015,0.192929,0.935544,1.645773,-0.521554,-0.059764,-0.068208,0.113771,-0.804922,-0.582371,-0.282671,0.568350,0.687825,28.729588,-39.212513,-54.355659,,,,,,,
1508076514.488032,0.190796,0.914759,1.649358,-1.302360,0.135466,-0.116304,0.115677,-0.792416,-0.598912,-0.239472,0.502468,0.667882,28.729086,-38.847454,-54.617432,,,,,,,
1508076514.508046,0.191636,0.884886,1.652815,-1.536942,0.106962,-0.215947,0.120636,-0.773843,-0.621783,-0.107559,0.441278,0.381640,29.098181,-36.567352,-55.979225,,,,,,,
1508076514.528043,0.187444,0.852329,1.652545,-1.641892,-0.422077,-0.393733,0.122661,-0.752815,-0.646702,-0.090602,0.359215,0.315052,29.192085,-34.632286,-57.148716,,,,,,,
1508076514.548059,0.179112,0.817252,1.649196,-1.751691,-0.555219,-0.386388,0.121899,-0.729269,-0.673281,-0.086621,0.244054,0.283694,29.066931,-33.560181,-57.847874,,,,,,,
1508076514.568065,0.168179,0.778608,1.652214,-2.023521,-0.296748,-0.161744,0.119161,-0.702289,-0.701848,-0.183340,0.019580,0.163305,28.682041,-31.289911,-59.294441,,,,,,,
1508076514.588071,0.163763,0.736907,1.655237,-2.065445,-0.064162,-0.338893,0.120733,-0.672001,-0.730643,-0.091452,0.111210,-0.088968,28.374910,-27.465366,-61.303074,,,,,,,
1508076514.608078,0.167549,0.693339,1.648183,-2.154721,-0.025983,-0.776563,0.128263,-0.639109,-0.758346,-0.030332,0.008417,-0.119813,28.374910,-27.465366,-61.303074,,,,,,,
1508076514.628083,0.174766,0.646347,1.635944,-2.263165,-0.017223,-0.882172,0.138805,-0.602274,-0.786129,0.045613,-0.089330,-0.165989,28.939363,-21.332365,-63.442825,,,,,,,
1508076514.648080,0.181342,0.600509,1.625839,-2.080041,0.085783,-0.744118,0.148797,-0.565063,-0.811519,0.065788,0.000625,-0.194126,29.192204,-18.805038,-64.122810,,,,,,,
1508076514.668097,0.185653,0.564606,1.619981,-1.460282,-0.029986,-0.459268,0.155940,-0.535083,-0.830282,0.109258,0.045093,-0.255090,29.546459,-15.803383,-64.767342,,,,,,,
1508076514.688102,0.181919,0.540694,1.617102,-1.053121,-0.394725,-0.295405,0.155109,-0.514731,-0.843204,0.187252,-0.036264,-0.203778,29.487179,-13.333952,-65.347229,,,,,,,
1508076514.708083,0.174804,0.518275,1.614697,-1.119611,-0.370162,-0.318104,0.151075,-0.495382,-0.855437,0.133913,-0.028299,-0.067857,27.264910,-15.016811,-58.926182,,,,,,,
1508076514.728115,0.170894,0.495356,1.611390,-1.080483,-0.232721,-0.336121,0.149622,-0.475345,-0.866984,0.065222,-0.021832,-0.043554,26.944731,-13.522015,-59.433258,,,,,,,
1508076514.748090,0.169289,0.475092,1.610198,-0.893119,-0.037185,-0.125837,0.149822,-0.457421,-0.876539,0.095753,-0.082863,-0.065219,26.770866,-11.762606,-59.884365,,,,,,,
1508076514.768099,0.166132,0.463207,1.612815,-0.439381,-0.196408,0.069132,0.147943,-0.446819,-0.882307,0.082342,0.007259,-0.053698,26.767038,-11.478104,-59.941254,,,,,,,
1508076514.788134,0.158348,0.457724,1.614965,-0.247341,-0.384967,0.051463,0.141455,-0.441908,-0.885837,0.080835,-0.032000,0.067234,26.454012,-10.579309,-60.244823,,,,,,,
1508076514.808140,0.144657,0.448722,1.621466,-0.701451,-0.661315,0.335182,0.129882,-0.433814,-0.891592,0.069398,-0.324563,0.092519,26.086731,-10.363031,-60.442249,,,,,,,
1508076514.828123,0.122392,0.424378,1.632989,-1.700077,-0.974173,0.299949,0.111257,-0.411754,-0.904478,0.091304,-0.491795,0.064543,24.704681,-9.066956,-61.226173,,,,,,,
1508076514.848136,0.098476,0.371580,1.640051,-3.296631,-1.083683,-0.137647,0.091607,-0.363088,-0.927241,0.119361,-0.563731,0.059046,24.704681,-9.066956,-61.226173,,,,,,,
1508076514.868133,0.071450,0.282781,1.638207,-5.170213,-1.731884,-0.699445,0.068554,-0.279027,-0.957833,0.286777,-0.634349,-0.161964,22.735193,-4.113707,-62.508907,,,,,,,
1508076514.888151,0.030513,0.143834,1.622741,-7.851075,-2.253071,-1.285938,0.030194,-0.143338,-0.989213,0.533207,-0.179278,-0.405578,19.228697,7.015283,-63.420959,,,,,,,
1508076514.908172,0.000754,-0.030603,1.606065,-8.978270,-0.945079,-0.554451,0.000754,0.030599,-0.999531,0.491723,0.069804,-0.477046,19.228697,7.015283,-63.420959,,,,,,,
1508076514.928177,0.005209,-0.190842,1.614185,-6.265720,0.950136,1.156233,0.005115,0.189686,-0.981831,0.563657,0.703106,-1.351298,17.368151,21.581524,-61.340302,,,,,,,
1508076514.948179,0.052014,-0.197207,1.673502,2.513222,1.841969,3.672378,0.050982,0.195931,-0.979291,0.919950,1.782920,-1.320361,19.545540,29.197060,-57.406887,,,,,,,
1508076514.968191,0.058079,-0.084062,1.742245,6.063340,-1.482122,3.509992,0.057841,0.083963,-0.994789,1.130864,1.359412,-1.709160,22.438913,25.993885,-57.886612,,,,,,,
1508076514.988196,0.018118,0.046562,1.794510,6.539589,-1.784009,2.596994,0.018097,-0.046545,-0.998752,0.324005,0.071799,-0.097302,21.902731,12.711169,-62.359791,,,,,,,
1508076515.008178,0.004071,0.164600,1.846471,5.042505,0.215510,2.746125,0.004016,-0.163858,-0.986476,-0.307681,-0.332693,-0.206441,21.167677,3.692556,-63.783554,,,,,,,
1508076515.028209,0.010026,0.238123,1.898315,3.265274,1.380281,2.199548,0.009743,-0.235879,-0.971734,-0.401955,-0.065086,0.028817,21.167677,3.692556,-63.783554,,,,,,,
1508076515.048215,0.038430,0.297137,1.934909,2.715625,1.962731,1.851364,0.036737,-0.292784,-0.955473,-0.380167,0.206648,0.014814,23.537102,-6.997101,-63.434502,,,,,,,
1508076515.068205,0.056473,0.350664,1.976803,2.494062,1.265452,2.187931,0.053008,-0.343522,-0.937648,-0.348022,0.227021,0.088053,25.010023,-10.226782,-62.424370,,,,,,,
1508076515.088227,0.060278,0.397522,2.016724,2.062001,0.824142,1.860902,0.055544,-0.387134,-0.920349,-0.263658,0.288456,0.158584,25.453512,-12.908175,-61.864941,,,,,,,
1508076515.108233,0.059425,0.439743,2.053787,2.054922,0.638877,1.818810,0.053740,-0.425707,-0.903264,-0.321089,0.463900,0.264867,25.946688,-17.220188,-60.597092,,,,,,,
1508076515.128232,0.055643,0.486961,2.090238,2.356505,0.613389,1.742180,0.049149,-0.467942,-0.882391,-0.384934,0.430375,0.336752,26.028271,-20.773476,-59.437069,,,,,,,
1508076515.148246,0.048342,0.533749,2.125807,2.128565,0.457152,1.594268,0.041601,-0.508764,-0.859900,-0.377386,0.471197,0.314261,26.002228,-22.618196,-58.771374,,,,,,,
1508076515.168252,0.041911,0.572674,2.157089,1.758172,0.566453,1.316788,0.035214,-0.541882,-0.839717,-0.510601,0.378857,0.463237,25.668976,-27.419350,-56.842377,,,,,,,
1508076515.188259,0.039985,0.605945,2.182977,1.553884,0.579864,1.027779,0.032858,-0.569539,-0.821307,-0.494985,0.396596,0.424930,25.668310,-29.919914,-55.567162,,,,,,,
1508076515.208264,0.037833,0.635870,2.202690,1.365252,0.409970,0.779804,0.030432,-0.593878,-0.803980,-0.455221,0.341330,0.440988,25.671993,-31.026066,-54.955482,,,,,,,
1508076515.228261,0.035003,0.655760,2.218460,0.702565,0.304002,0.584572,0.027737,-0.609762,-0.792099,-0.427060,0.177770,0.481583,25.574909,-33.645622,-53.438461,,,,,,,
1508076515.248258,0.033062,0.661694,2.228554,0.063230,0.146044,0.283447,0.026079,-0.614454,-0.788522,-0.481936,0.277326,0.467644,25.513041,-34.364433,-53.008904,,,,,,,
1508076515.268275,0.033180,0.658191,2.228685,-0.288661,-0.064904,-0.189867,0.026244,-0.611687,-0.790664,-0.510512,0.323128,0.451843,25.494492,-34.399357,-52.995171,,,,,,,
1508076515.288289,0.038364,0.651404,2.216365,-0.313569,-0.103399,-0.646733,0.030501,-0.606304,-0.794648,-0.467192,0.358791,0.352967,25.541594,-34.103291,-53.163574,,,,,,,
1508076515.308296,0.049447,0.641086,2.199457,-0.663300,0.154555,-0.686466,0.039613,-0.598066,-0.800467,-0.284135,0.181089,0.287848,26.086599,-33.017845,-53.582497,,,,,,,
1508076515.328303,0.061353,0.620657,2.183691,-1.153216,0.043989,-0.734611,0.049879,-0.581570,-0.811966,-0.258818,0.172207,0.258179,26.086599,-33.017845,-53.582497,,,,,,,
1508076515.348308,0.069979,0.595409,2.163743,-1.141463,-0.227149,-0.986604,0.057890,-0.560847,-0.825893,-0.231428,0.299159,0.121105,26.939850,-30.880905,-54.427814,,,,,,,
1508076515.368315,0.077351,0.575771,2.141877,-0.786196,-0.181521,-0.942747,0.064815,-0.544482,-0.836265,-0.192180,0.279650,-0.021493,27.441780,-28.317307,-55.559444,,,,,,,
1508076515.388322,0.085795,0.562693,2.121515,-0.428810,-0.140133,-0.909494,0.072478,-0.533466,-0.842711,-0.168196,0.270648,-0.069948,27.441780,-28.317307,-55.559444,,,,,,,
1508076515.408327,0.092848,0.556730,2.099804,-0.131152,-0.270041,-0.971811,0.078714,-0.528413,-0.845331,-0.087808,0.188233,-0.052389,27.953175,-26.596569,-56.151718,,,,,,,
1508076515.428325,0.099870,0.551699,2.075479,-0.217213,-0.268675,-1.111452,0.084912,-0.524135,-0.847391,-0.059201,0.074123,0.102488,28.276291,-25.499393,-56.497837,,,,,,,
1508076515.448341,0.111008,0.542115,2.047065,-0.395984,-0.138206,-1.344597,0.094897,-0.515949,-0.851347,-0.099902,0.105991,0.133604,28.518150,-24.763393,-56.703281,,,,,,,
1508076515.468346,0.122181,0.529917,2.016956,-0.524809,-0.312956,-1.302513,0.105161,-0.505462,-0.856416,-0.106062,0.025558,0.193620,28.882874,-23.852484,-56.908802,,,,,,,
1508076515.488340,0.121127,0.510261,1.993219,-1.105538,-0.874679,-1.057213,0.105439,-0.488405,-0.866223,-0.056672,-0.169020,0.236279,29.058123,-21.693493,-57.678337,,,,,,,
1508076515.508359,0.101433,0.469510,1.974476,-2.574334,-1.775422,-1.095297,0.090302,-0.452449,-0.887206,-0.030151,-0.260365,0.246902,28.714426,-20.676296,-58.221523,,,,,,,
1508076515.528365,0.062952,0.387484,1.952219,-4.936598,-2.788013,-1.555476,0.058247,-0.377860,-0.924029,-0.061451,-0.570489,0.116457,25.932007,-14.497404,-61.311741,,,,,,,
1508076515.548367,0.023515,0.260705,1.911707,-6.596953,-1.918356,-2.627812,0.022718,-0.257762,-0.965941,-0.401334,-0.236013,0.073165,22.784527,-6.238885,-63.903950,,,,,,,
1508076515.568378,0.021638,0.134587,1.847332,-5.789349,-0.213558,-3.475260,0.021441,-0.134181,-0.990725,-0.636294,0.249293,-0.384138,21.843203,-1.388886,-64.519135,,,,,,,
1508076515.588383,0.032128,0.051596,1.794071,-2.732933,0.700320,-2.212311,0.032080,-0.051573,-0.998154,-0.728872,0.641448,-1.274078,21.008013,10.939371,-63.880875,,,,,,,
1508076515.608364,0.056329,0.043785,1.760797,0.908506,1.116612,-1.494929,0.056245,-0.043771,-0.997457,-0.196992,0.830239,-1.199244,22.899294,10.740502,-60.689125,,,,,,,
1508076515.628395,0.074828,0.085967,1.731104,2.728531,0.720447,-1.241035,0.074482,-0.085861,-0.993519,0.332897,0.587189,-1.003231,23.664839,10.467928,-60.442566,,,,,,,
1508076515.648377,0.091375,0.151863,1.699688,3.755132,0.471125,-1.340554,0.090198,-0.151280,-0.984367,0.520367,0.104328,-0.739678,24.672943,6.204902,-60.627144,,,,,,,
1508076515.668394,0.087583,0.215543,1.666873,2.838718,-1.104283,-1.261572,0.085447,-0.213878,-0.973116,0.187960,-0.309666,-0.643003,24.438810,2.551472,-60.984756,,,,,,,
1508076515.688416,0.069448,0.262121,1.638877,2.252772,-1.092715,-1.113084,0.067022,-0.259130,-0.963514,0.047602,-0.387156,-0.317888,23.682671,1.182380,-61.324051,,,,,,,
1508076515.708420,0.064201,0.303374,1.612668,2.139198,-0.400135,-1.188087,0.061227,-0.298742,-0.952368,-0.113839,-0.024073,-0.020090,21.921108,-2.222172,-61.947018,,,,,,,
1508076515.728422,0.068298,0.345143,1.576899,2.221541,-0.371162,-1.837947,0.064220,-0.338331,-0.938833,-0.037136,0.068114,0.021429,21.550011,-4.313609,-61.966892,,,,,,,
1508076515.748435,0.079726,0.385727,1.527423,2.163285,-0.296831,-2.246308,0.073790,-0.376233,-0.923582,0.035692,0.094555,0.066160,21.420359,-5.275770,-61.937393,,,,,,,
1508076515.768439,0.092938,0.423074,1.474485,1.981771,-0.456524,-2.269447,0.084622,-0.410565,-0.907896,0.168414,0.065716,0.206709,21.249142,-7.822630,-61.726707,,,,,,,
1508076515.788419,0.105009,0.453737,1.419150,1.658663,-0.605336,-2.389672,0.094211,-0.438327,-0.893864,0.231443,0.141239,0.278401,21.062996,-8.848591,-61.651917,,,,,,,
1508076515.808452,0.119790,0.478051,1.362839,1.375050,-0.475514,-2.285778,0.106106,-0.460050,-0.881530,0.246692,0.157331,0.393447,21.176527,-8.250582,-62.904057,,,,,,,
1508076515.828459,0.134672,0.497001,1.314161,1.130083,-0.364511,-1.830827,0.118021,-0.476791,-0.871057,0.254095,0.127060,0.418451,20.954914,-9.166164,-62.851498,,,,,,,
1508076515.848453,0.146570,0.511923,1.276908,0.852315,-0.309020,-1.312134,0.127324,-0.489854,-0.862457,0.301769,0.199678,0.468688,20.883606,-9.640360,-62.804272,,,,,,,
1508076515.868471,0.149763,0.519192,1.250488,0.263539,-0.602448,-0.993945,0.129542,-0.496179,-0.858502,0.360922,0.221887,0.444653,20.686623,-10.111343,-62.795399,,,,,,,
1508076515.888478,0.147704,0.511456,1.229962,-0.513149,-0.541754,-0.884413,0.128335,-0.489447,-0.862538,0.520515,0.237998,0.281300,19.976749,-9.688046,-63.091278,,,,,,,
1508076515.908476,0.147658,0.494861,1.216708,-0.806431,-0.168410,-0.570783,0.129472,-0.474910,-0.870458,0.502623,0.367412,0.071691,19.593002,-8.544264,-63.376240,,,,,,,
1508076515.928490,0.152560,0.480381,1.211437,-0.528241,0.256856,-0.191158,0.134769,-0.462117,-0.876519,0.494748,0.439962,-0.038597,19.566956,-7.932447,-63.463753,,,,,,,
1508076515.948496,0.158742,0.478170,1.211767,0.173263,0.338176,0.072645,0.140346,-0.460156,-0.876675,0.594120,0.587292,-0.156741,20.067783,-7.030405,-63.413681,,,,,,,
1508076515.968504,0.166403,0.491002,1.213243,0.851836,0.478266,0.248177,0.146068,-0.471510,-0.869680,0.649159,0.500456,-0.003794,20.533676,-7.654184,-63.191925,,,,,,,
1508076515.988509,0.170500,0.511457,1.221150,0.899862,0.276053,0.685058,0.147962,-0.489448,-0.859388,0.604693,0.361244,0.049360,20.814011,-8.282146,-63.020794,,,,,,,
1508076516.008515,0.165870,0.527347,1.238342,0.524217,0.224483,0.951597,0.142680,-0.503243,-0.852285,0.372686,0.047676,0.252157,18.788612,-9.595026,-63.356354,,,,,,,
1508076516.028501,0.161205,0.537529,1.262076,0.208594,0.443574,1.165115,0.137872,-0.512015,-0.847840,0.248587,0.001318,0.341172,18.990860,-11.089052,-63.051445,,,,,,,
1508076516.048528,0.156714,0.539206,1.289653,-0.313759,0.492717,1.159463,0.133929,-0.513455,-0.847601,0.209027,-0.033558,0.358221,19.146084,-11.409887,-62.947170,,,,,,,
1508076516.068531,0.152629,0.529838,1.318804,-0.827373,0.533242,1.200847,0.131191,-0.505393,-0.852858,0.173344,-0.141381,0.306090,19.712801,-11.363634,-62.780396,,,,,,,
1508076516.088529,0.146729,0.515254,1.351091,-0.924337,0.517063,1.313116,0.127222,-0.492756,-0.860817,0.119132,-0.050487,0.209130,20.083572,-10.723120,-62.775543,,,,,,,
1508076516.108543,0.141017,0.504125,1.383575,-0.641881,0.512764,1.296971,0.123065,-0.483041,-0.866906,0.086072,0.021906,0.166741,20.267447,-10.427698,-62.766220,,,,,,,
1508076516.128548,0.138793,0.497194,1.412460,-0.473513,0.614167,1.172750,0.121597,-0.476961,-0.870472,-0.029159,0.133791,0.146061,20.890469,-10.033016,-62.626122,,,,,,,
1508076516.148557,0.138058,0.489487,1.440887,-0.639472,0.661054,1.184990,0.121460,-0.470173,-0.874177,-0.000565,0.007283,0.121491,21.024017,-10.007671,-62.585476,,,,,,,
1508076516.168566,0.139142,0.477717,1.467784,-0.784506,0.683774,1.028023,0.123166,-0.459753,-0.879464,0.027804,0.107717,0.103173,21.895512,-9.621246,-62.346794,,,,,,,
1508076516.188571,0.141882,0.465567,1.491665,-0.709745,0.676401,0.976891,0.126356,-0.448929,-0.884588,-0.010222,0.113785,0.038824,22.722942,-8.981749,-62.145802,,,,,,,
1508076516.208555,0.144617,0.455797,1.517100,-0.606709,0.712336,1.105315,0.129401,-0.440178,-0.888537,-0.045767,0.034554,0.021457,23.228878,-8.692535,-61.999706,,,,,,,
1508076516.228585,0.145274,0.448300,1.545138,-0.550227,0.594843,1.257325,0.130459,-0.433434,-0.891693,-0.085476,-0.044624,0.069686,23.896450,-8.489319,-61.773743,,,,,,,
1508076516.248589,0.139833,0.437873,1.577592,-0.899765,0.291004,1.425138,0.126228,-0.424014,-0.896816,-0.114982,-0.214368,0.120800,24.431793,-8.329500,-61.585808,,,,,,,
1508076516.268583,0.124912,0.410762,1.612559,-2.063619,-0.277393,1.352149,0.114224,-0.399308,-0.909674,-0.122647,-0.379607,0.145590,24.431147,-7.814024,-61.653587,,,,,,,
1508076516.288604,0.099545,0.349215,1.645319,-3.993293,-0.867480,1.034800,0.093382,-0.342161,-0.934990,-0.066496,-0.558779,0.039680,23.814150,-5.598635,-62.134094,,,,,,,
1508076516.308608,0.063467,0.239871,1.670763,-6.248569,-1.552996,0.536741,0.061608,-0.237577,-0.969413,-0.140252,-0.689776,-0.063668,21.952354,1.190208,-63.053802,,,,,,,
1508076516.328593,0.036629,0.113607,1.677190,-6.133116,-0.980399,-0.296970,0.036385,-0.113363,-0.992887,-0.287636,0.007467,-0.805193,20.566889,7.107798,-63.131500,,,,,,,
1508076516.348622,0.029831,0.020709,1.671434,-3.606949,-0.075760,-0.208553,0.029821,-0.020708,-0.999341,-0.410924,0.680665,-1.709796,18.536884,13.822275,-62.788437,,,,,,,
1508076516.368628,0.037975,-0.012231,1.695253,-0.525584,0.365293,2.048629,0.037963,0.012231,-0.999204,-0.229476,0.450705,-1.993578,18.984182,18.014523,-61.580330,,,,,,,
1508076516.388609,0.046356,0.021867,1.750139,2.952687,0.312778,2.839043,0.046328,-0.021865,-0.998687,0.313443,0.969512,-1.956483,20.048264,17.022404,-61.525318,,,,,,,
1508076516.408625,0.040922,0.121957,1.783311,5.847787,-0.610339,1.188961,0.040606,-0.121655,-0.991741,0.173413,0.976636,-1.828922,21.118979,11.761452,-62.391636,,,,,,,
1508076516.428646,0.024399,0.252097,1.791668,6.840580,-0.552779,0.512413,0.023625,-0.249435,-0.968103,-0.321431,0.174133,-0.673971,20.249304,1.687642,-63.750896,,,,,,,
1508076516.448650,0.023566,0.394969,1.803645,6.947818,0.440425,0.828482,0.021750,-0.384779,-0.922752,-0.457556,-0.063631,-0.347389,20.083334,-7.622089,-63.368942,,,,,,,
1508076516.468658,0.028178,0.517615,1.811454,5.776175,0.444117,0.193792,0.024484,-0.494809,-0.868657,-0.445581,-0.067829,-0.136806,20.272758,-12.042414,-62.618324,,,,,,,
1508076516.488662,0.050352,0.624888,1.803046,5.109325,1.168361,-0.199013,0.040820,-0.585006,-0.810001,-0.194766,0.265686,0.243610,21.292887,-22.614849,-59.264164,,,,,,,
1508076516.508645,0.084459,0.721157,1.793722,4.640584,1.444969,0.036178,0.063357,-0.660254,-0.748365,-0.045107,0.322791,0.359419,22.894564,-28.283789,-56.150917,,,,,,,
1508076516.528678,0.114529,0.805008,1.784155,3.945650,0.936920,0.089919,0.079207,-0.720836,-0.688565,0.007753,0.388179,0.355572,23.878321,-28.619116,-54.843719,,,,,,,
1508076516.548684,0.132097,0.876985,1.775041,3.429760,0.353120,0.180877,0.084227,-0.768814,-0.633901,0.129396,0.604218,0.531819,25.132206,-34.850727,-50.506046,,,,,,,
1508076516.568683,0.143829,0.939871,1.767096,2.967704,0.275486,0.174886,0.084552,-0.807482,-0.583802,0.073911,0.712587,0.600312,25.280430,-38.162407,-47.974903,,,,,,,
1508076516.588697,0.156816,0.992775,1.759903,2.443200,0.391623,0.226910,0.085328,-0.837545,-0.539664,0.002959,0.750601,0.619132,25.351654,-39.582760,-46.771362,,,,,,,
1508076516.608692,0.165933,1.033515,1.759210,1.723253,0.463983,0.355423,0.084536,-0.859103,-0.504772,-0.044039,0.752887,0.744366,25.573082,-42.952015,-43.568375,,,,,,,
1508076516.628687,0.169387,1.058909,1.764682,0.958383,0.328998,0.301441,0.082573,-0.871822,-0.482814,-0.035058,0.856624,0.749308,25.637699,-44.353630,-42.101376,,,,,,,
1508076516.648716,0.171866,1.071575,1.765379,0.436141,0.032501,0.015032,0.081875,-0.877955,-0.471689,-0.058956,0.899653,0.744608,25.640659,-44.793892,-41.630821,,,,,,,
1508076516.668722,0.173612,1.074423,1.760587,-0.004592,-0.166307,-0.125705,0.082266,-0.879316,-0.469080,-0.147955,0.847425,0.720179,25.003811,-42.682205,-40.822830,,,,,,,
1508076516.688721,0.175562,1.069220,1.756837,-0.357254,0.041501,-0.125255,0.083979,-0.876826,-0.473418,-0.210489,0.856760,0.698805,24.999367,-42.566521,-40.946156,,,,,,,
1508076516.708734,0.179269,1.058215,1.756759,-0.675529,0.220502,-0.106286,0.087448,-0.871481,-0.482569,-0.242829,0.816824,0.636973,25.157707,-42.188248,-41.239620,,,,,,,
1508076516.728740,0.186302,1.038352,1.752401,-1.107574,0.134981,-0.434209,0.094029,-0.861569,-0.498856,-0.230778,0.709912,0.541398,25.545589,-41.247135,-41.947128,,,,,,,
1508076516.748746,0.201575,1.011260,1.738338,-1.333322,0.202663,-0.692000,0.106272,-0.847501,-0.520046,-0.203730,0.548139,0.437770,25.951309,-40.301434,-42.612076,,,,,,,
1508076516.768753,0.219236,0.979615,1.723274,-1.556263,0.264616,-0.749245,0.121213,-0.830283,-0.544002,-0.193692,0.449606,0.381740,26.686697,-38.765781,-43.571770,,,,,,,
1508076516.788759,0.235744,0.942300,1.709870,-1.822925,0.263754,-0.817276,0.137321,-0.808912,-0.571668,-0.119361,0.252851,0.222989,27.711756,-36.440224,-44.918079,,,,,,,
1508076516.808744,0.247827,0.900356,1.700815,-2.071861,0.236995,-0.721800,0.152411,-0.783548,-0.602348,-0.061591,0.076914,0.057655,28.312077,-34.823605,-45.817112,,,,,,,
1508076516.828773,0.254988,0.853760,1.693343,-2.235456,-0.054385,-0.948839,0.165756,-0.753757,-0.635905,-0.043655,0.090762,-0.010121,28.543383,-33.489941,-45.234856,,,,,,,
1508076516.848778,0.266856,0.803537,1.674997,-2.277592,-0.022632,-1.374722,0.183052,-0.719816,-0.669595,-0.044242,0.125165,-0.049628,29.321510,-30.114567,-47.072868,,,,,,,
1508076516.868772,0.282862,0.751561,1.656696,-2.364582,0.226395,-1.244981,0.203921,-0.682780,-0.701589,0.036542,-0.047567,-0.120478,29.964981,-27.865561,-48.042725,,,,,,,
1508076516.888788,0.290662,0.700590,1.648680,-2.303784,0.013588,-0.838878,0.219085,-0.644669,-0.732396,0.129960,-0.109146,-0.205424,30.618343,-25.583521,-48.892673,,,,,,,
1508076516.908784,0.283526,0.658645,1.650507,-1.841696,-0.497713,-0.369035,0.221227,-0.612046,-0.759249,0.105220,-0.061675,-0.145445,31.058395,-21.557495,-50.528637,,,,,,,
1508076516.928800,0.265331,0.625239,1.655154,-1.618543,-0.916660,-0.241569,0.212621,-0.585291,-0.782449,0.008326,-0.285803,-0.140555,30.687912,-20.073887,-51.359360,,,,,,,
1508076516.948810,0.236356,0.585218,1.663017,-2.384227,-1.358690,-0.166340,0.195195,-0.552381,-0.810416,0.027858,-0.631380,-0.128534,30.036041,-18.685875,-52.260567,,,,,,,
1508076516.968815,0.200343,0.521589,1.674959,-3.767213,-1.619222,-0.218038,0.172543,-0.498258,-0.849687,0.019412,-0.786944,-0.237243,27.939325,-14.388602,-54.725269,,,,,,,
1508076516.988798,0.153900,0.421805,1.686745,-5.951741,-2.444782,-0.475268,0.139857,-0.409408,-0.901568,0.122198,-1.061676,-0.372968,26.529554,-10.780416,-56.235741,,,,,,,
1508076517.008829,0.081742,0.250709,1.688866,-10.130460,-3.967613,-1.244443,0.079099,-0.248091,-0.965502,-0.072644,-0.742052,-0.031873,23.472620,-3.044008,-58.500111,,,,,,,
1508076517.028834,0.043398,0.035072,1.668000,-10.220332,-0.545046,-1.753586,0.043358,-0.035065,-0.998444,-0.649651,1.929153,-2.217834,18.673374,13.036894,-58.854378,,,,,,,
1508076517.048818,0.068591,-0.079928,1.647509,-3.071558,2.768813,-0.476264,0.068318,0.079843,-0.994464,-0.629979,1.870123,-2.025266,19.915386,16.647346,-56.785599,,,,,,,
1508076517.068843,0.116335,-0.047553,1.669905,3.273159,1.454054,2.059846,0.115942,0.047535,-0.992118,0.345484,1.067531,-2.861611,22.718655,18.925869,-54.991226,,,,,,,
1508076517.088837,0.117343,0.055434,1.696513,5.664300,-0.471348,1.489912,0.116894,-0.055405,-0.991598,0.932163,0.458970,-1.527033,24.674501,12.241461,-56.032818,,,,,,,
1508076517.108854,0.103405,0.177170,1.696466,6.265974,-0.712139,0.372270,0.101605,-0.176245,-0.979089,0.199863,0.082662,-0.695121,24.324547,6.884770,-57.090080,,,,,,,
1508076517.128867,0.100960,0.305368,1.692771,6.214636,0.232320,0.580402,0.096125,-0.300644,-0.948880,-0.042415,0.061188,-0.356403,23.678036,-0.587642,-57.769943,,,,,,,
1508076517.148872,0.113421,0.412367,1.691601,4.869180,0.846672,0.359242,0.103691,-0.400779,-0.910288,-0.294716,-0.085244,0.128534,24.113514,-9.273454,-56.841030,,,,,,,
1508076517.168851,0.141087,0.500643,1.682866,4.177078,1.277594,0.161578,0.123362,-0.479990,-0.868557,-0.028269,0.123682,0.244046,25.275543,-14.542136,-55.209007,,,,,,,
1508076517.188885,0.169129,0.578410,1.674973,3.728603,1.099551,0.292452,0.140943,-0.546693,-0.825386,0.063006,0.188417,0.267418,25.944435,-16.843159,-54.236107,,,,,,,
1508076517.208891,0.191077,0.645883,1.666160,3.163656,0.651359,0.227934,0.151661,-0.601903,-0.784035,0.056667,0.307775,0.475853,27.432625,-22.837055,-51.227737,,,,,,,
1508076517.228880,0.202465,0.703167,1.657264,2.758650,0.095424,0.220306,0.153387,-0.646637,-0.747217,-0.015463,0.544586,0.536264,27.732914,-25.229994,-49.926888,,,,,,,
1508076517.248902,0.210350,0.758028,1.648504,2.779782,0.238066,0.267271,0.151631,-0.687491,-0.710186,-0.039189,0.651251,0.580578,27.729256,-27.373352,-48.786770,,,,,,,
1508076517.268891,0.226629,0.814861,1.639839,2.849675,0.584070,0.357101,0.154133,-0.727630,-0.668429,-0.087406,0.676544,0.676074,27.914703,-31.587887,-46.057968,,,,,,,
1508076517.288908,0.239246,0.868115,1.635192,2.402567,0.332477,0.512500,0.153146,-0.763112,-0.627859,-0.039849,0.549321,0.701666,28.091496,-33.652031,-44.460880,,,,,,,
1508076517.308906,0.241532,0.905807,1.635313,1.478514,0.026183,0.381149,0.147593,-0.786924,-0.599139,-0.037119,0.559354,0.716235,28.047318,-35.434433,-43.082600,,,,,,,
1508076517.328919,0.241986,0.926216,1.634350,0.742581,-0.010359,0.100724,0.143986,-0.799352,-0.583356,-0.179371,0.649572,0.753766,27.712509,-37.494598,-41.527496,,,,,,,
1508076517.348936,0.246686,0.933258,1.628285,0.167144,-0.033106,-0.171488,0.145347,-0.803564,-0.577200,-0.224922,0.557653,0.693060,27.705067,-37.873474,-41.187260,,,,,,,
1508076517.368942,0.246938,0.927902,1.626783,-0.515050,-0.056639,-0.037347,0.146543,-0.800364,-0.581328,-0.219526,0.475276,0.623686,27.777317,-37.908764,-41.106049,,,,,,,
1508076517.388946,0.241740,0.910470,1.630842,-1.037557,-0.111604,-0.185440,0.146837,-0.789792,-0.595539,-0.211107,0.508237,0.567875,27.771648,-37.127560,-41.816753,,,,,,,
1508076517.408933,0.240131,0.885865,1.628606,-1.235027,-0.223908,-0.466233,0.150456,-0.774463,-0.614468,-0.211323,0.433520,0.449627,27.834574,-36.322952,-42.476357,,,,,,,
1508076517.428961,0.244291,0.858147,1.620026,-1.302595,0.028863,-0.613799,0.158144,-0.756632,-0.634428,-0.137788,0.261454,0.307966,28.015259,-34.974930,-43.477127,,,,,,,
1508076517.448966,0.251319,0.831774,1.617930,-1.228427,0.327426,-0.238581,0.167503,-0.739127,-0.652406,-0.057930,0.115043,0.166322,28.608753,-33.201199,-44.469997,,,,,,,
1508076517.468957,0.248240,0.804978,1.621976,-1.431150,-0.256231,-0.258755,0.170300,-0.720816,-0.671880,0.011127,0.113119,0.082433,28.849503,-32.275059,-44.993195,,,,,,,
1508076517.488979,0.242013,0.772637,1.619829,-1.601941,-0.355737,-0.550417,0.171612,-0.698026,-0.695204,-0.020733,0.039258,0.098845,28.785507,-30.770901,-46.075024,,,,,,,
1508076517.508984,0.239680,0.738081,1.617332,-1.646267,-0.108762,-0.465462,0.175613,-0.672870,-0.718614,-0.071777,0.014453,0.001772,28.830879,-28.488796,-47.492416,,,,,,,
1508076517.528989,0.240784,0.706644,1.615082,-1.422840,-0.011925,-0.443576,0.181363,-0.649285,-0.738604,-0.005643,0.077111,0.016864,28.983503,-27.144966,-48.181622,,,,,,,
1508076517.548997,0.240810,0.677242,1.612244,-1.427880,-0.156723,-0.479859,0.185856,-0.626646,-0.756817,0.028500,0.056288,0.031109,29.191448,-25.507271,-48.944862,,,,,,,
1508076517.568988,0.236406,0.644103,1.608344,-1.631856,-0.434442,-0.607899,0.187283,-0.600482,-0.777398,0.104343,0.066439,-0.078300,29.202854,-23.289299,-50.031620,,,,,,,
1508076517.588987,0.234415,0.612938,1.600799,-1.313637,-0.226773,-0.621813,0.189991,-0.575273,-0.795590,0.085399,0.087007,-0.041064,29.119648,-21.820122,-50.737457,,,,,,,
1508076517.609017,0.234060,0.587784,1.596837,-1.140917,-0.098429,-0.368958,0.193005,-0.554518,-0.809480,0.091144,0.053084,0.001741,29.152735,-20.167370,-51.398018,,,,,,,
1508076517.628998,0.233057,0.564135,1.596036,-1.131057,-0.052850,-0.256598,0.195167,-0.534685,-0.822206,0.180077,0.003694,-0.000152,29.206474,-18.428286,-52.016739,,,,,,,
1508076517.649015,0.227197,0.542705,1.600384,-1.075625,-0.357090,0.061265,0.192883,-0.516454,-0.834309,0.222660,-0.151285,-0.112209,29.202950,-17.479729,-52.345085,,,,,,,
1508076517.669032,0.209869,0.521709,1.608611,-1.125639,-0.761961,0.108760,0.180617,-0.498363,-0.847946,0.179933,-0.218205,-0.049149,28.906517,-16.651358,-52.777901,,,,,,,
1508076517.689041,0.191438,0.494603,1.614488,-1.620820,-0.749641,-0.130965,0.167468,-0.474683,-0.864078,0.193463,-0.400989,-0.002896,27.677368,-14.785019,-53.978958,,,,,,,
1508076517.709025,0.174164,0.446230,1.618040,-3.024028,-0.864969,-0.346832,0.156317,-0.431568,-0.888434,0.378015,-0.727505,-0.111536,26.917995,-12.419302,-54.950375,,,,,,,
1508076517.729054,0.146228,0.358388,1.621418,-5.286749,-1.814866,-0.741885,0.136450,-0.350765,-0.926469,0.495356,-0.837971,-0.198302,26.452555,-10.512453,-55.570786,,,,,,,
1508076517.749060,0.088458,0.207706,1.611757,-8.786417,-3.401396,-1.703646,0.086444,-0.206216,-0.974681,0.613996,-0.613517,-0.225362,22.877321,0.087455,-58.094593,,,,,,,
1508076517.769041,0.053794,0.014981,1.595066,-9.635185,-0.876684,-1.119036,0.053762,-0.014980,-0.998441,0.100733,0.508251,-0.924334,20.175060,11.167639,-57.591228,,,,,,,
1508076517.789074,0.053802,-0.125269,1.589728,-4.896090,0.567934,-0.194533,0.053355,0.124942,-0.990728,-0.022044,1.772214,-1.967402,19.592756,16.833963,-56.402489,,,,,,,
1508076517.809078,0.104354,-0.141361,1.622242,1.467266,2.437420,2.740031,0.103126,0.140891,-0.984639,0.821724,1.068353,-2.021434,21.852951,23.152065,-53.244057,,,,,,,
1508076517.829072,0.128452,-0.060206,1.686683,4.546677,-0.345661,3.767610,0.127867,0.060169,-0.989964,1.041505,0.798900,-1.465770,25.108381,17.947023,-53.297779,,,,,,,
1508076517.849092,0.100739,0.047120,1.736187,5.188248,-1.710405,2.711022,0.100457,-0.047103,-0.993826,0.534355,0.391509,-0.662149,25.561852,11.116127,-54.919971,,,,,,,
1508076517.869097,0.074199,0.155694,1.781086,5.162158,-0.416265,2.773313,0.073234,-0.155066,-0.985186,-0.016380,0.029395,-0.116789,23.978985,2.155271,-56.688122,,,,,,,
1508076517.889082,0.070232,0.242132,1.836237,3.276855,0.588124,3.072588,0.068127,-0.239773,-0.968436,-0.485012,-0.134830,0.002829,23.945450,-3.002685,-56.663734,,,,,,,
1508076517.909083,0.079602,0.300331,1.886571,2.528336,1.406831,2.328727,0.075959,-0.295837,-0.952214,-0.451279,0.200713,0.006810,24.337730,-6.541157,-57.206039,,,,,,,
1508076517.929117,0.092526,0.351299,1.928858,2.353113,1.213190,2.234633,0.086751,-0.344118,-0.934910,-0.348913,0.309740,0.136067,25.738361,-11.449717,-55.803974,,,,,,,
1508076517.949120,0.098217,0.405589,1.970754,2.618762,0.985409,2.111914,0.090104,-0.394560,-0.914442,-0.259354,0.374236,0.274015,26.373114,-15.316261,-54.566605,,,,,,,
1508076517.969130,0.098206,0.462858,2.006396,2.685312,0.537617,1.767545,0.087731,-0.446507,-0.890469,-0.251397,0.377965,0.288738,26.554901,-17.297543,-53.882050,,,,,,,
1508076517.989135,0.087493,0.516230,2.037374,2.386420,0.025800,1.524611,0.075995,-0.493605,-0.866359,-0.322775,0.357451,0.466076,26.164232,-20.897707,-52.856617,,,,,,,
1508076518.009112,0.074332,0.559713,2.065488,1.881149,0.195774,1.286872,0.062931,-0.530943,-0.845068,-0.388111,0.388762,0.540319,25.540218,-23.941502,-51.861404,,,,,,,
1508076518.029148,0.071148,0.593155,2.090430,1.431784,0.683092,1.089274,0.058945,-0.558979,-0.827084,-0.410355,0.424092,0.530499,25.367401,-25.202496,-51.346203,,,,,,,
1508076518.049154,0.075222,0.618745,2.110344,1.099924,0.764731,0.789775,0.061219,-0.580013,-0.812304,-0.424134,0.462169,0.527178,25.557545,-28.116032,-49.713219,,,,,,,
1508076518.069151,0.078955,0.638658,2.124293,0.863545,0.489332,0.571089,0.063327,-0.596119,-0.800395,-0.398837,0.443943,0.578288,25.813828,-29.465786,-48.790546,,,,,,,
1508076518.089160,0.079698,0.653750,2.135463,0.631426,0.338350,0.459358,0.063198,-0.608167,-0.791289,-0.395306,0.427869,0.599929,25.871002,-30.015202,-48.423985,,,,,,,
1508076518.109149,0.082117,0.665760,2.142128,0.580303,0.326114,0.191932,0.064508,-0.617657,-0.783797,-0.458231,0.422650,0.539504,25.973965,-31.252666,-47.578644,,,,,,,
1508076518.129179,0.087281,0.675482,2.141165,0.377699,0.148817,-0.081516,0.068028,-0.625274,-0.777435,-0.495549,0.347304,0.514328,26.186747,-31.799723,-47.097084,,,,,,,
1508076518.149187,0.094233,0.678311,2.136694,0.039733,0.314264,-0.207353,0.073264,-0.627479,-0.775179,-0.477271,0.318671,0.519320,26.284069,-31.928774,-46.955349,,,,,,,
1508076518.169191,0.106860,0.675674,2.128226,-0.140850,0.327569,-0.446262,0.083223,-0.625423,-0.775835,-0.319826,0.273937,0.314150,26.944347,-31.758467,-46.695881,,,,,,,
1508076518.189176,0.120311,0.670315,2.113620,-0.274743,0.159685,-0.640993,0.094052,-0.621233,-0.777961,-0.268994,0.141542,0.269111,27.532585,-31.302448,-46.660656,,,,,,,
1508076518.209205,0.130295,0.658710,2.099955,-0.661603,0.045700,-0.590000,0.102744,-0.612097,-0.784080,-0.241293,0.084219,0.251884,27.795923,-30.978821,-46.720474,,,,,,,
1508076518.229210,0.138894,0.639632,2.086883,-0.983929,0.006585,-0.699020,0.111079,-0.596900,-0.794589,-0.176493,0.088645,0.135745,28.427431,-29.477108,-47.308403,,,,,,,
1508076518.249188,0.147291,0.615660,2.071118,-1.127620,-0.056990,-0.850471,0.119813,-0.577497,-0.807553,-0.135239,0.116148,0.033825,28.841230,-28.030169,-47.933250,,,,,,,
1508076518.269202,0.154748,0.591204,2.053596,-1.071931,-0.163362,-0.933208,0.127970,-0.557361,-0.820349,-0.118083,0.137485,-0.008936,29.045298,-27.239717,-48.264603,,,,,,,
1508076518.289230,0.161458,0.567984,2.033794,-0.982188,-0.231348,-1.038919,0.135517,-0.537933,-0.832023,-0.038944,0.147339,-0.016426,29.538681,-24.856792,-49.241341,,,,,,,
1508076518.309213,0.166634,0.545924,2.012825,-0.917713,-0.351684,-1.064947,0.141755,-0.519208,-0.842810,0.006499,0.081967,-0.043573,29.735235,-23.673361,-49.704037,,,,,,,
1508076518.329243,0.169502,0.527067,1.991835,-0.656249,-0.408335,-1.002479,0.145798,-0.503001,-0.851900,0.002747,0.115122,-0.051024,29.865833,-22.146780,-50.325493,,,,,,,
1508076518.349248,0.169841,0.515485,1.973526,-0.338806,-0.448190,-0.820868,0.147061,-0.492957,-0.857535,-0.038221,0.132437,-0.017267,29.839596,-20.725374,-50.942719,,,,,,,
1508076518.369251,0.169241,0.507148,1.955666,-0.209495,-0.464069,-0.886845,0.147234,-0.485686,-0.861644,-0.079866,0.206145,-0.132771,29.699993,-19.917229,-51.345085,,,,,,,
1508076518.389261,0.168623,0.504071,1.933293,0.096582,-0.632172,-1.027522,0.146952,-0.482994,-0.863205,-0.039362,0.102257,-0.128815,29.635201,-19.564974,-51.517670,,,,,,,
1508076518.409267,0.170182,0.500268,1.911619,-0.154326,-0.323436,-0.904921,0.148607,-0.479661,-0.864778,-0.027712,-0.010192,-0.058562,29.367304,-18.734241,-51.977814,,,,,,,
1508076518.429274,0.171140,0.491087,1.894832,-0.417720,-0.464286,-0.752332,0.150179,-0.471585,-0.868938,-0.066149,-0.103443,-0.038853,29.347542,-17.966866,-52.259136,,,,,,,
1508076518.449280,0.160225,0.473860,1.883146,-1.085286,-1.049280,-0.578071,0.141961,-0.456324,-0.878416,-0.056466,-0.248617,-0.007753,29.199804,-17.509022,-52.496750,,,,,,,
1508076518.469285,0.130169,0.427107,1.881294,-3.208402,-1.874707,-0.375772,0.118141,-0.414240,-0.902468,-0.072410,-0.783835,-0.068266,27.603983,-14.772785,-54.174610,,,,,,,
1508076518.489293,0.083928,0.327025,1.874144,-6.027192,-2.860588,-1.352086,0.079387,-0.321227,-0.943669,-0.220714,-0.569444,-0.334163,25.331047,-9.755919,-56.376091,,,,,,,
1508076518.509297,0.027337,0.170720,1.826502,-8.413815,-3.034437,-3.611533,0.026936,-0.169892,-0.985095,-0.336659,-0.401642,-0.304349,23.698057,-5.708893,-57.627373,,,,,,,
1508076518.529297,0.023503,0.006708,1.746852,-7.575927,0.698371,-3.832638,0.023500,-0.006708,-0.999701,-0.967745,0.972833,-1.847757,19.498852,10.886773,-58.449772,,,,,,,
1508076518.549284,0.063341,-0.055176,1.711152,-0.338933,2.608818,-0.715919,0.063202,0.055148,-0.996476,-0.455399,1.335675,-1.190048,19.949057,16.854973,-56.859901,,,,,,,
1508076518.569318,0.090963,0.006218,1.702838,4.603587,0.291825,-0.212588,0.090836,-0.006218,-0.995847,-0.044556,1.068825,-1.431720,21.855555,17.374790,-55.996025,,,,,,,
1508076518.589324,0.082832,0.116808,1.682513,6.157809,-0.429784,-0.717246,0.082173,-0.116543,-0.989780,0.828639,0.028591,-0.537456,22.204105,9.800967,-57.671677,,,,,,,
1508076518.609329,0.084039,0.226990,1.656152,4.243445,-0.604733,-0.884947,0.081786,-0.225046,-0.970910,0.207902,-0.775855,-0.531654,21.959044,3.076387,-58.510170,,,,,,,
1508076518.629337,0.076471,0.286285,1.625175,2.811044,-0.585234,-1.401312,0.073288,-0.282390,-0.956496,-0.089477,-0.560292,-0.050111,21.492786,1.046764,-58.754303,,,,,,,
1508076518.649277,0.081884,0.334083,1.598926,2.450651,0.060144,-0.746095,0.077271,-0.327903,-0.941546,-0.137497,-0.103890,0.040484,20.720554,-2.993610,-58.964401,,,,,,,
1508076518.669275,0.086936,0.383234,1.581533,2.499687,-0.189223,-0.700930,0.080529,-0.373922,-0.923957,0.192741,-0.004618,0.086296,20.796921,-5.005481,-58.800823,,,,,,,
1508076518.689290,0.090226,0.429290,1.553546,2.356392,-0.496943,-1.282825,0.081928,-0.416225,-0.905563,0.191342,0.037685,0.067901,20.696888,-6.982864,-58.634304,,,,,,,
1508076518.709285,0.093785,0.474046,1.518669,2.417705,-0.627941,-1.303364,0.083321,-0.456490,-0.885819,0.215172,0.143624,0.252609,23.317955,-9.310213,-57.612236,,,,,,,
1508076518.729302,0.095646,0.521471,1.487613,2.492344,-0.624201,-1.051827,0.082807,-0.498156,-0.863124,0.237399,0.157077,0.322871,22.821005,-11.599859,-57.395309,,,,,,,
1508076518.749309,0.098918,0.567407,1.460110,2.343843,-0.534993,-0.897329,0.083281,-0.537447,-0.839175,0.267442,0.222307,0.277865,22.599773,-12.784855,-57.230888,,,,,,,
1508076518.769315,0.101398,0.610302,1.433374,2.153762,-0.663844,-0.894252,0.082951,-0.573115,-0.815266,0.381130,0.218181,0.344257,22.021381,-16.152077,-56.601646,,,,,,,
1508076518.789299,0.103619,0.645514,1.405981,1.666730,-0.679576,-0.956570,0.082622,-0.601609,-0.794506,0.366612,0.270539,0.380154,21.552696,-17.998215,-56.223862,,,,,,,
1508076518.809327,0.110095,0.671405,1.377518,1.273366,-0.464291,-0.961530,0.086024,-0.622086,-0.778208,0.363210,0.291016,0.363856,21.362137,-18.693012,-56.069664,,,,,,,
1508076518.829333,0.118343,0.690280,1.353024,0.887269,-0.298440,-0.750385,0.091038,-0.636753,-0.765675,0.403545,0.275639,0.431339,21.149200,-20.164524,-55.638840,,,,,,,
1508076518.849327,0.125743,0.699558,1.336347,0.319336,-0.083677,-0.471570,0.095956,-0.643879,-0.759086,0.458884,0.295414,0.413124,21.172199,-20.645794,-55.453281,,,,,,,
1508076518.869345,0.130599,0.700210,1.327042,-0.011869,-0.069024,-0.299859,0.099586,-0.644378,-0.758195,0.465218,0.334671,0.340882,21.224890,-20.695065,-55.414757,,,,,,,
1508076518.889343,0.132998,0.700045,1.320863,0.086936,-0.069270,-0.189035,0.101419,-0.644252,-0.758059,0.409292,0.399532,0.261111,21.287745,-20.543722,-55.446949,,,,,,,
