timestamp(unix),attitude_roll(radians),attitude_pitch(radians),attitude_yaw(radians),rotation_rate_x(radians/s),rotation_rate_y(radians/s),rotation_rate_z(radians/s),gravity_x(G),gravity_y(G),gravity_z(G),user_acc_x(G),user_acc_y(G),user_acc_z(G),magnetic_field_x(microteslas),magnetic_field_y(microteslas),magnetic_field_z(microteslas),latitude(degree),longitude(degree),altitude(meter),speed(m/s),course(degree),timestamp(unix),User Mark
1508437065.388788,-0.018291,-0.041171,-0.799218,-0.071768,0.071754,0.028263,-0.018274,0.041159,-0.998985,0.034464,0.029657,0.011086,-0.452189,16.235470,-48.388321,,,,,,,
1508437065.408816,-0.017465,-0.042989,-0.797975,-0.107836,0.026912,0.084388,-0.017448,0.042975,-0.998924,0.031593,0.010430,0.011802,-0.392167,16.288277,-48.371094,,,,,,,
1508437065.428797,-0.016824,-0.047007,-0.796586,-0.119806,0.061013,0.048696,-0.016804,0.046990,-0.998754,-0.004482,0.030219,-0.002406,-0.308370,16.448423,-48.317482,,,,,,,
1508437065.448815,-0.014083,-0.048714,-0.796360,-0.065746,0.182531,0.001042,-0.014066,0.048695,-0.998715,-0.004504,0.029919,0.001873,-0.207335,16.616976,-48.260311,,,,,,,
1508437065.468829,-0.010151,-0.049748,-0.796196,-0.051806,0.187826,0.014816,-0.010139,0.049727,-0.998711,0.017493,0.012940,-0.006126,-0.115289,16.646660,-48.250389,,,,,,,
1508437065.488837,-0.005036,-0.050413,-0.795230,-0.042847,0.104650,0.061868,-0.005029,0.050392,-0.998717,0.046899,-0.006584,-0.009950,0.144781,16.720211,-48.224873,,,,,,,
1508437065.508814,-0.003137,-0.050847,-0.793593,-0.015979,0.098192,0.091798,-0.003133,0.050825,-0.998703,0.021108,0.000613,-0.001862,0.373220,16.730568,-48.220051,,,,,,,
1508437065.528848,-0.000515,-0.051413,-0.791790,-0.038626,0.145090,0.080471,-0.000515,0.051390,-0.998679,0.012615,-0.006041,-0.008524,0.438608,16.738672,-48.216686,,,,,,,
1508437065.548851,0.003673,-0.052714,-0.790223,-0.008814,0.190898,0.076586,0.003668,0.052690,-0.998604,0.012033,0.016722,-0.040275,0.698409,16.787006,-48.196815,,,,,,,
1508437065.568842,0.008344,-0.052298,-0.788500,0.038186,0.236658,0.092948,0.008333,0.052275,-0.998598,0.025343,0.020418,-0.076323,0.900293,16.817148,-48.182961,,,,,,,
1508437065.588862,0.013720,-0.050980,-0.786618,0.080914,0.270719,0.100952,0.013702,0.050958,-0.998607,0.028702,0.021216,-0.070744,1.097306,16.788437,-48.188889,,,,,,,
1508437065.608866,0.020988,-0.048768,-0.784115,0.156085,0.220569,0.137878,0.020961,0.048749,-0.998591,0.053334,0.013995,-0.064473,1.523094,16.645657,-48.226826,,,,,,,
1508437065.628870,0.025888,-0.045082,-0.780739,0.188242,0.265185,0.195853,0.025859,0.045067,-0.998649,0.021779,-0.001930,-0.033074,1.835874,16.541403,-48.251797,,,,,,,
1508437065.648878,0.031705,-0.041131,-0.776779,0.187111,0.281172,0.191357,0.031673,0.041120,-0.998652,0.010182,0.001803,-0.031591,2.073883,16.399349,-48.290630,,,,,,,
1508437065.668881,0.038256,-0.036698,-0.773752,0.167806,0.249311,0.148116,0.038221,0.036689,-0.998596,0.022234,-0.015327,0.005096,2.560191,16.118145,-48.361919,,,,,,,
1508437065.688886,0.043525,-0.033543,-0.770424,0.141128,0.268411,0.188378,0.043487,0.033537,-0.998491,0.016038,-0.025892,0.019777,2.837885,15.955997,-48.400177,,,,,,,
1508437065.708894,0.048396,-0.031001,-0.766756,0.101688,0.209846,0.181793,0.048354,0.030996,-0.998349,0.019411,-0.016531,0.015790,3.074317,15.845701,-48.421967,,,,,,,
1508437065.728896,0.053293,-0.028852,-0.763100,0.098793,0.116089,0.193819,0.053246,0.028848,-0.998165,0.035561,-0.001412,0.021953,3.343265,15.728492,-48.442352,,,,,,,
1508437065.748895,0.055078,-0.026428,-0.758573,0.110934,0.057377,0.254374,0.055031,0.026425,-0.998135,0.041526,-0.003797,0.036846,3.657903,15.586510,-48.465504,,,,,,,
1508437065.768909,0.057390,-0.023391,-0.753328,0.111227,-0.019353,0.274680,0.057343,0.023389,-0.998080,0.038467,-0.009779,0.038135,3.783806,15.460094,-48.496315,,,,,,,
1508437065.788913,0.056751,-0.021318,-0.747384,0.065430,-0.044993,0.317739,0.056707,0.021317,-0.998163,0.017985,-0.019989,0.036661,3.918653,15.370365,-48.514126,,,,,,,
1508437065.808893,0.056191,-0.019643,-0.741420,0.020426,-0.063017,0.281780,0.056151,0.019642,-0.998229,0.006547,-0.012180,0.033294,3.998612,15.225538,-48.553257,,,,,,,
1508437065.828924,0.054856,-0.019412,-0.735953,-0.010575,-0.077915,0.277754,0.054819,0.019411,-0.998308,0.008597,-0.015474,0.027574,4.040072,15.160824,-48.570072,,,,,,,
1508437065.848928,0.052662,-0.018430,-0.730541,0.007697,-0.123690,0.260277,0.052629,0.018429,-0.998444,-0.002367,-0.013683,0.013611,4.031946,15.139093,-48.577522,,,,,,,
1508437065.868935,0.049152,-0.017162,-0.725645,0.001178,-0.115123,0.236699,0.049125,0.017161,-0.998645,-0.023338,-0.017771,0.014392,3.926668,15.035144,-48.618416,,,,,,,
1508437065.888940,0.047543,-0.017494,-0.721307,-0.045073,-0.071369,0.203044,0.047517,0.017493,-0.998717,-0.019426,-0.019233,0.020034,3.908723,15.027824,-48.622124,,,,,,,
1508437065.908932,0.046222,-0.018205,-0.717420,-0.035502,-0.071336,0.184909,0.046198,0.018204,-0.998766,-0.012033,-0.003906,-0.002347,3.893224,15.063027,-48.612473,,,,,,,
1508437065.928952,0.043938,-0.018072,-0.713890,0.000855,-0.079838,0.169010,0.043916,0.018071,-0.998872,-0.016130,-0.004826,-0.009124,3.835536,15.059165,-48.618256,,,,,,,
1508437065.948936,0.042700,-0.017639,-0.711137,0.019842,-0.040332,0.120440,0.042680,0.017638,-0.998933,-0.017305,0.004945,-0.004622,3.820506,15.050426,-48.622143,,,,,,,
1508437065.968959,0.043065,-0.017333,-0.709053,0.004545,0.039614,0.095833,0.043045,0.017332,-0.998923,-0.028885,-0.004210,0.002325,3.838527,15.014319,-48.631886,,,,,,,
1508437065.988947,0.043102,-0.017137,-0.707558,-0.010407,-0.002933,0.065539,0.043083,0.017136,-0.998925,-0.008247,-0.006226,-0.011772,3.874276,14.997901,-48.634117,,,,,,,
1508437066.008970,0.042063,-0.017124,-0.706470,0.002423,-0.017818,0.048684,0.042045,0.017123,-0.998969,-0.013984,-0.000446,-0.010385,3.879270,15.000235,-48.632999,,,,,,,
1508437066.028975,0.040178,-0.017504,-0.705827,0.016207,-0.004991,0.021830,0.040161,0.017503,-0.999040,-0.017456,0.007705,-0.001464,3.797864,15.002007,-48.638878,,,,,,,
1508437066.048975,0.039572,-0.017256,-0.705620,0.009714,0.006750,0.009935,0.039556,0.017255,-0.999068,-0.014226,0.000582,-0.000031,3.731701,15.004045,-48.643368,,,,,,,
1508437066.068986,0.039342,-0.016912,-0.705494,0.023537,0.030191,0.004253,0.039326,0.016911,-0.999083,-0.017582,-0.000538,0.000319,3.738283,14.999475,-48.644276,,,,,,,
1508437066.088990,0.039307,-0.016718,-0.705803,0.039564,0.008933,-0.022109,0.039292,0.016717,-0.999088,-0.000946,0.003073,-0.000149,3.720269,14.979241,-48.651886,,,,,,,
1508437066.108984,0.039452,-0.016143,-0.705971,0.020397,-0.000689,-0.001695,0.039437,0.016142,-0.999092,0.001411,-0.000364,0.006660,3.720652,14.959638,-48.657890,,,,,,,
1508437066.129001,0.039362,-0.015929,-0.706069,0.019387,-0.023055,-0.003502,0.039347,0.015929,-0.999099,0.005453,0.003069,0.006408,3.722051,14.944221,-48.662518,,,,,,,
1508437066.148984,0.038569,-0.015645,-0.706072,0.028922,0.013151,0.000230,0.038555,0.015645,-0.999134,-0.014263,0.001872,0.012943,3.701410,14.927293,-48.669292,,,,,,,
1508437066.169010,0.039210,-0.015208,-0.706102,0.022504,0.009962,-0.001851,0.039195,0.015208,-0.999116,0.007237,0.002584,0.004502,3.691121,14.909708,-48.675465,,,,,,,
1508437066.189016,0.039390,-0.014945,-0.706017,0.018396,-0.031610,0.013683,0.039376,0.014945,-0.999113,0.013740,0.004113,-0.000872,3.711874,14.897040,-48.677765,,,,,,,
1508437066.209021,0.039902,-0.014827,-0.705477,-0.016175,0.105767,0.037308,0.039887,0.014826,-0.999094,-0.060334,-0.001673,0.120737,3.725124,14.879501,-48.682114,,,,,,,
1508437066.229028,0.040464,-0.015783,-0.705527,-0.077158,-0.003744,-0.059158,0.040448,0.015782,-0.999057,0.044925,0.019191,0.059650,3.785006,14.909582,-48.668293,,,,,,,
1508437066.249033,0.037377,-0.016369,-0.706187,0.004871,-0.163692,0.012410,0.037363,0.016368,-0.999168,0.018408,0.018941,-0.001031,3.707297,14.957761,-48.659489,,,,,,,
1508437066.269037,0.034365,-0.016427,-0.705264,0.032161,0.032265,0.027674,0.034354,0.016427,-0.999275,-0.021063,0.013313,-0.010369,3.619803,14.959249,-48.665619,,,,,,,
1508437066.289025,0.034759,-0.016827,-0.706208,-0.035422,-0.009082,-0.062311,0.034747,0.016826,-0.999254,-0.006152,-0.009044,-0.025190,3.501944,14.963443,-48.672951,,,,,,,
1508437066.309049,0.034457,-0.016879,-0.706919,0.009448,0.045177,-0.035408,0.034445,0.016878,-0.999264,-0.028982,0.014097,-0.022480,3.452488,14.984833,-48.669903,,,,,,,
1508437066.329054,0.035218,-0.015833,-0.708538,0.079918,0.027178,-0.099178,0.035207,0.015833,-0.999255,-0.008916,0.012228,-0.015623,3.482539,14.955048,-48.676922,,,,,,,
1508437066.349054,0.034712,-0.013622,-0.710275,0.082214,0.005814,-0.071146,0.034702,0.013622,-0.999305,-0.020023,-0.013271,0.012672,3.437500,14.851304,-48.711876,,,,,,,
1508437066.369040,0.035279,-0.012897,-0.712158,0.010274,0.045326,-0.111118,0.035269,0.012896,-0.999295,-0.022238,-0.010257,0.031033,3.431093,14.817132,-48.722733,,,,,,,
1508437066.389068,0.036239,-0.013410,-0.714691,-0.030459,0.041126,-0.136618,0.036227,0.013409,-0.999254,-0.012790,-0.004757,0.034959,3.445696,14.819879,-48.720867,,,,,,,
1508437066.409075,0.036104,-0.013749,-0.717334,0.007138,0.011253,-0.119153,0.036092,0.013748,-0.999254,-0.016775,0.000259,0.035814,3.407502,14.850292,-48.714291,,,,,,,
1508437066.429078,0.035593,-0.013063,-0.719190,0.049184,-0.043220,-0.077895,0.035582,0.013063,-0.999281,-0.024474,0.000151,0.049635,3.381497,14.840029,-48.719231,,,,,,,
1508437066.449083,0.032882,-0.012840,-0.720635,0.022495,-0.064525,-0.077567,0.032874,0.012840,-0.999377,-0.041281,0.010979,0.040423,3.297473,14.793757,-48.739059,,,,,,,
1508437066.469080,0.031867,-0.012847,-0.722923,-0.007736,-0.032453,-0.131324,0.031859,0.012847,-0.999410,-0.054824,0.031160,0.046193,3.154357,14.809849,-48.743645,,,,,,,
1508437066.489096,0.031401,-0.013254,-0.725147,-0.018324,-0.039962,-0.103483,0.031393,0.013254,-0.999419,-0.065115,0.018790,0.048980,3.102885,14.820677,-48.743656,,,,,,,
1508437066.509099,0.027208,-0.015327,-0.727943,-0.021709,-0.039868,-0.155732,0.027202,0.015326,-0.999512,-0.078242,0.036538,0.044419,2.992135,14.862454,-48.737862,,,,,,,
1508437066.529078,0.027156,-0.015569,-0.730687,-0.000336,-0.001577,-0.129645,0.027149,0.015569,-0.999510,-0.089573,0.020930,0.045912,2.792490,14.955515,-48.721237,,,,,,,
1508437066.549110,0.026880,-0.016218,-0.734152,-0.049789,0.003894,-0.195798,0.026873,0.016217,-0.999507,-0.069842,0.018481,0.046855,2.760946,14.964238,-48.720360,,,,,,,
1508437066.569114,0.024321,-0.017451,-0.737271,-0.082983,0.088967,-0.125566,0.024314,0.017450,-0.999552,-0.089897,-0.009851,0.054163,2.711263,15.056949,-48.694576,,,,,,,
1508437066.589101,0.025972,-0.018969,-0.739302,-0.061403,0.060142,-0.096374,0.025965,0.018967,-0.999483,-0.034097,0.017348,0.047334,2.573651,15.103233,-48.687710,,,,,,,
1508437066.609125,0.026035,-0.020273,-0.740899,-0.073888,-0.029390,-0.068409,0.026027,0.020271,-0.999456,-0.020534,0.012215,0.051534,2.593436,15.168118,-48.666485,,,,,,,
1508437066.629117,0.025644,-0.022432,-0.742122,-0.148764,-0.043209,-0.072417,0.025635,0.022431,-0.999420,0.012177,-0.009140,0.049804,2.558462,15.226332,-48.650154,,,,,,,
1508437066.649124,0.025292,-0.025667,-0.743898,-0.154313,-0.006933,-0.100663,0.025281,0.025664,-0.999351,0.034488,0.009736,0.036964,2.511528,15.390715,-48.600849,,,,,,,
1508437066.669142,0.024011,-0.028685,-0.746132,-0.149802,-0.111279,-0.124744,0.023999,0.028681,-0.999300,0.076267,-0.011881,0.020144,2.461147,15.544306,-48.554523,,,,,,,
1508437066.689145,0.020355,-0.032447,-0.748628,-0.209442,-0.207136,-0.124376,0.020343,0.032442,-0.999267,0.080212,-0.028474,0.012862,2.397766,15.619248,-48.533642,,,,,,,
1508437066.709131,0.015285,-0.038131,-0.750576,-0.327911,-0.281726,-0.097614,0.015273,0.038122,-0.999156,0.080766,-0.055517,-0.031895,2.055220,15.928672,-48.448715,,,,,,,
1508437066.729136,0.009585,-0.045525,-0.753252,-0.376360,-0.261329,-0.170382,0.009575,0.045509,-0.998918,0.079064,-0.043465,-0.041838,1.828926,16.168806,-48.378189,,,,,,,
1508437066.749139,0.005357,-0.052534,-0.757844,-0.329861,-0.170601,-0.267700,0.005350,0.052510,-0.998606,0.060080,0.004070,-0.068304,1.386949,16.705301,-48.210308,,,,,,,
1508437066.769159,0.002545,-0.058818,-0.763614,-0.301189,-0.109865,-0.280331,0.002541,0.058784,-0.998267,0.088661,-0.034278,-0.088540,1.155825,17.020985,-48.105873,,,,,,,
1508437066.789172,0.000456,-0.064110,-0.768136,-0.246396,-0.086622,-0.191140,0.000455,0.064066,-0.997946,0.096728,-0.034510,-0.092921,1.059477,17.164991,-48.056892,,,,,,,
1508437066.809176,0.001935,-0.066849,-0.770927,-0.169124,-0.094209,-0.129242,0.001930,0.066799,-0.997765,0.096031,-0.015133,-0.099205,1.005587,17.446199,-47.956680,,,,,,,
1508437066.829155,0.000693,-0.068759,-0.773133,-0.049411,-0.020788,-0.103739,0.000691,0.068705,-0.997637,0.069133,0.012945,-0.068113,0.915010,17.548550,-47.921139,,,,,,,
1508437066.849188,0.000837,-0.068572,-0.774898,0.026541,0.018548,-0.074510,0.000835,0.068518,-0.997649,0.069463,-0.001334,-0.058045,0.871279,17.585709,-47.908329,,,,,,,
1508437066.869192,0.003788,-0.066118,-0.775842,0.016077,-0.035807,-0.053454,0.003780,0.066070,-0.997808,0.073765,-0.042449,-0.026484,1.003834,17.460102,-47.951660,,,,,,,
1508437066.889194,0.002755,-0.066104,-0.776937,-0.008513,-0.046447,-0.056480,0.002749,0.066056,-0.997812,0.051130,-0.026506,-0.012121,0.958130,17.453672,-47.954937,,,,,,,
1508437066.909204,0.002128,-0.066574,-0.778250,-0.035423,-0.013381,-0.075067,0.002123,0.066525,-0.997783,0.044020,-0.017727,-0.006032,0.910767,17.460072,-47.953529,,,,,,,
1508437066.929207,0.003648,-0.067419,-0.779796,-0.076135,0.002616,-0.076334,0.003640,0.067368,-0.997722,0.032981,-0.012467,0.004512,0.933483,17.503353,-47.937309,,,,,,,
1508437066.949214,0.003825,-0.068592,-0.780936,-0.034403,0.030252,-0.051175,0.003816,0.068539,-0.997641,0.019286,0.027912,0.000205,0.917542,17.557217,-47.917919,,,,,,,
1508437066.969219,0.004587,-0.068612,-0.782073,0.005103,0.045181,-0.064217,0.004576,0.068558,-0.997637,0.015230,0.037933,0.004732,0.929183,17.583471,-47.908066,,,,,,,
1508437066.989223,0.007055,-0.069539,-0.783255,-0.037673,0.044118,-0.056705,0.007038,0.069483,-0.997558,0.027859,-0.000742,0.011810,1.025338,17.606962,-47.897476,,,,,,,
1508437067.009228,0.007610,-0.070784,-0.784047,-0.070745,0.030241,-0.038352,0.007591,0.070725,-0.997467,0.024148,0.006332,-0.003708,1.049115,17.652718,-47.880116,,,,,,,
1508437067.029234,0.008771,-0.072604,-0.784927,-0.017245,0.016408,-0.050987,0.008748,0.072540,-0.997327,0.014598,0.035233,-0.006121,1.098997,17.760506,-47.839115,,,,,,,
1508437067.049223,0.009059,-0.072222,-0.785698,0.034244,0.009938,-0.017877,0.009035,0.072159,-0.997352,0.018751,0.016403,0.000404,1.098991,17.773916,-47.834133,,,,,,,
1508437067.069238,0.009629,-0.072056,-0.785279,-0.015724,-0.047664,0.029914,0.009604,0.071993,-0.997359,0.025720,-0.008944,0.007613,1.150074,17.745310,-47.843552,,,,,,,
1508437067.089242,0.009114,-0.072507,-0.784427,-0.044560,-0.050878,0.043844,0.009090,0.072444,-0.997331,0.012746,-0.007777,0.003633,1.125088,17.754555,-47.840721,,,,,,,
1508437067.109250,0.007781,-0.074003,-0.783793,-0.015864,-0.005048,0.026097,0.007759,0.073935,-0.997233,-0.011604,0.013070,-0.010732,1.090480,17.811766,-47.820251,,,,,,,
1508437067.129236,0.007420,-0.074424,-0.783952,0.036339,0.015280,-0.025420,0.007400,0.074355,-0.997204,-0.009688,0.021028,-0.012332,1.046672,17.868851,-47.799931,,,,,,,
1508437067.149266,0.007446,-0.074093,-0.784512,0.029950,0.005691,-0.024210,0.007426,0.074025,-0.997229,-0.005976,0.011851,-0.008219,1.050419,17.850740,-47.806610,,,,,,,
1508437067.169268,0.008759,-0.072839,-0.784523,-0.020004,-0.069989,0.009981,0.008736,0.072775,-0.997310,0.030052,-0.020361,-0.005986,1.064411,17.817982,-47.818523,,,,,,,
1508437067.189265,0.006965,-0.073065,-0.783651,0.005979,-0.122281,0.055505,0.006946,0.073000,-0.997308,0.009838,0.003630,-0.022559,1.055064,17.796818,-47.826611,,,,,,,
1508437067.209280,0.004448,-0.072972,-0.782572,0.065821,-0.102047,0.049835,0.004436,0.072907,-0.997329,-0.008251,0.016281,-0.027573,6.188447,18.772509,-47.789673,,,,,,,
1508437067.229285,0.002130,-0.072061,-0.782030,0.114862,-0.078560,0.016401,0.002125,0.071999,-0.997402,-0.008686,0.018959,-0.019825,6.061345,18.718157,-47.827271,,,,,,,
1508437067.249292,0.000444,-0.069981,-0.782278,0.118894,-0.042258,-0.026780,0.000443,0.069924,-0.997552,-0.009736,0.012000,-0.006629,5.990997,18.658787,-47.859318,,,,,,,
1508437067.269279,-0.000039,-0.068119,-0.783340,0.101379,0.048366,-0.065402,-0.000039,0.068066,-0.997681,-0.023597,0.012851,-0.005524,5.937555,18.591873,-47.892010,,,,,,,
1508437067.289300,0.001201,-0.066805,-0.785136,0.101192,0.071872,-0.100931,0.001198,0.066755,-0.997769,0.002784,0.013873,-0.002765,5.924656,18.484863,-47.935009,,,,,,,
1508437067.309305,0.003035,-0.064762,-0.787084,0.116140,0.094219,-0.090603,0.003029,0.064717,-0.997899,0.006523,0.006267,0.005391,5.957057,18.438383,-47.948891,,,,,,,
1508437067.329311,0.005045,-0.062643,-0.789009,0.122511,0.094248,-0.105537,0.005035,0.062602,-0.998026,0.005738,0.011555,0.008264,6.010524,18.371078,-47.968052,,,,,,,
1508437067.349315,0.007073,-0.060430,-0.791116,0.081853,0.095320,-0.103389,0.007060,0.060393,-0.998150,0.008290,-0.011550,0.017315,6.114931,18.229193,-48.008968,,,,,,,
1508437067.369318,0.009244,-0.059666,-0.793204,0.012217,0.127287,-0.099535,0.009228,0.059631,-0.998178,0.019551,-0.008423,0.017297,6.179319,18.187904,-48.016384,,,,,,,
1508437067.389328,0.012665,-0.059917,-0.794663,-0.019772,0.132545,-0.060134,0.012641,0.059881,-0.998125,0.021920,-0.000295,0.003802,6.252062,18.195969,-48.003910,,,,,,,
1508437067.409331,0.014448,-0.060321,-0.795263,-0.017275,0.065337,-0.011178,0.014421,0.060285,-0.998077,0.027983,-0.002210,-0.001923,6.342660,18.208441,-47.987293,,,,,,,
1508437067.429315,0.015420,-0.060005,-0.794729,0.005637,-0.014722,0.046458,0.015392,0.059969,-0.998082,0.019017,-0.012850,-0.006694,6.438693,18.237123,-47.963608,,,,,,,
1508437067.449338,0.015008,-0.059264,-0.793567,0.036759,-0.026482,0.063666,0.014981,0.059229,-0.998132,0.003482,-0.004007,0.004541,6.470073,18.198313,-47.974125,,,,,,,
1508437067.469326,0.014735,-0.057471,-0.791936,0.017605,-0.032919,0.089366,0.014710,0.057439,-0.998241,0.003173,-0.020925,0.013118,6.478999,18.113087,-48.005161,,,,,,,
1508437067.489343,0.013664,-0.057113,-0.790306,-0.005884,-0.062718,0.078086,0.013642,0.057082,-0.998276,-0.003342,-0.013243,0.009308,6.465950,18.049622,-48.030819,,,,,,,
1508437067.509357,0.012117,-0.056709,-0.788969,0.020755,-0.044581,0.059676,0.012097,0.056679,-0.998319,-0.017102,-0.007347,0.009290,6.449879,18.046741,-48.034061,,,,,,,
1508437067.529361,0.010482,-0.056296,-0.788477,0.020520,-0.026364,0.003964,0.010465,0.056266,-0.998361,-0.015577,-0.003287,0.022073,6.362355,18.006632,-48.060780,,,,,,,
1508437067.549341,0.010178,-0.056132,-0.788903,-0.024611,0.003536,-0.027359,0.010162,0.056102,-0.998373,-0.005325,-0.010265,0.033484,6.313648,17.986393,-48.074780,,,,,,,
1508437067.569373,0.010136,-0.056744,-0.789194,-0.062970,-0.029516,-0.007657,0.010120,0.056713,-0.998339,0.004147,-0.018795,0.026156,6.311316,18.003679,-48.068615,,,,,,,
1508437067.589377,0.009320,-0.058598,-0.789215,-0.025386,-0.070012,-0.002833,0.009304,0.058564,-0.998240,0.004047,0.021254,0.001582,6.277512,18.077438,-48.045353,,,,,,,
1508437067.609368,0.008229,-0.059397,-0.789386,0.006517,-0.022052,-0.019547,0.008215,0.059362,-0.998203,-0.008398,0.025767,0.002216,6.238691,18.118042,-48.035114,,,,,,,
1508437067.629390,0.007865,-0.060047,-0.790486,0.002040,-0.009172,-0.067714,0.007850,0.060011,-0.998167,-0.002495,0.026445,0.001280,6.203849,18.152292,-48.026691,,,,,,,
1508437067.649393,0.008177,-0.060096,-0.791544,-0.004313,-0.002830,-0.041144,0.008162,0.060060,-0.998161,0.010576,0.001632,-0.001686,6.164677,18.194813,-48.015652,,,,,,,
1508437067.669397,0.008289,-0.060477,-0.792273,0.004351,-0.041173,-0.043793,0.008274,0.060440,-0.998138,0.024578,0.013687,-0.004304,6.182997,18.221325,-48.003235,,,,,,,
1508437067.689405,0.008443,-0.061069,-0.792965,0.005356,0.000336,-0.025202,0.008427,0.061031,-0.998100,0.006069,0.011158,0.006706,6.166903,18.240231,-47.998127,,,,,,,
1508437067.709409,0.009719,-0.061379,-0.793228,-0.004298,0.021621,-0.012708,0.009700,0.061341,-0.998070,0.021565,0.007614,-0.000359,6.190424,18.259514,-47.987766,,,,,,,
1508437067.729395,0.010216,-0.061639,-0.793449,0.020444,-0.016743,-0.006838,0.010196,0.061600,-0.998049,0.020626,0.015122,-0.001417,6.224016,18.271921,-47.978695,,,,,,,
1508437067.749393,0.010300,-0.061523,-0.793282,0.016216,-0.013582,0.012313,0.010280,0.061484,-0.998055,0.017857,0.011041,0.005105,6.237798,18.278801,-47.974289,,,,,,,
1508437067.769424,0.011370,-0.061964,-0.792919,-0.008449,0.014105,0.021527,0.011348,0.061924,-0.998016,0.017522,0.006176,0.013687,6.277983,18.286530,-47.966099,,,,,,,
1508437067.789430,0.011849,-0.062168,-0.792309,-0.009376,-0.021070,0.033767,0.011826,0.062128,-0.997998,0.019302,-0.000559,0.015698,6.341016,18.301933,-47.951935,,,,,,,
1508437067.809435,0.011387,-0.062191,-0.791354,-0.021015,-0.041348,0.055396,0.011365,0.062151,-0.998002,0.011325,-0.008974,0.016221,6.334177,18.303877,-47.952091,,,,,,,
1508437067.829438,0.010982,-0.062855,-0.790501,-0.064028,0.000260,0.028167,0.010960,0.062813,-0.997965,-0.001362,-0.002297,0.025324,6.325110,18.290405,-47.958427,,,,,,,
1508437067.849447,0.011467,-0.064288,-0.790083,-0.068406,0.024777,0.020351,0.011443,0.064243,-0.997869,0.000535,-0.002186,0.014745,6.336649,18.360409,-47.930149,,,,,,,
1508437067.869452,0.011239,-0.065797,-0.789492,-0.087368,-0.054086,0.040702,0.011214,0.065749,-0.997773,0.008058,-0.014663,0.010636,6.363392,18.423672,-47.902321,,,,,,,
1508437067.889455,0.008833,-0.068407,-0.788404,-0.163026,-0.145705,0.054883,0.008812,0.068354,-0.997622,0.000450,-0.062479,-0.081327,6.282822,18.542440,-47.867119,,,,,,,
1508437067.909448,0.006289,-0.073717,-0.787309,-0.330058,-0.115828,0.050310,0.006272,0.073650,-0.997264,0.011260,-0.081982,-0.269124,6.170293,18.750174,-47.800789,,,,,,,
1508437067.929468,0.004106,-0.081383,-0.786538,-0.392252,-0.110415,0.015090,0.004092,0.081293,-0.996682,0.016080,-0.094782,-0.398353,6.126642,18.911663,-47.742748,,,,,,,
1508437067.949457,0.003435,-0.085977,-0.786553,-0.056725,0.025893,-0.006332,0.003422,0.085871,-0.996300,-0.037327,-0.028529,-0.726035,6.016143,19.394173,-47.562897,,,,,,,
1508437067.969476,0.005985,-0.080183,-0.786836,0.506801,0.136579,-0.027553,0.005966,0.080097,-0.996769,-0.039215,-0.012074,-0.780498,6.109396,19.253426,-47.608170,,,,,,,
1508437067.989482,0.006330,-0.064744,-0.788252,0.888149,-0.058351,-0.079394,0.006317,0.064698,-0.997885,-0.003585,-0.056932,-0.791956,6.160177,18.985455,-47.709137,,,,,,,
1508437068.009485,0.005580,-0.045050,-0.789082,1.030417,0.046911,0.001078,0.005575,0.045034,-0.998970,-0.076070,-0.178213,-0.700707,6.077915,17.708418,-48.208172,,,,,,,
1508437068.029474,0.010311,-0.022894,-0.788826,1.155911,0.317433,0.008790,0.010308,0.022892,-0.999685,-0.087899,-0.105396,-0.694697,6.247591,16.664461,-48.557392,,,,,,,
1508437068.049498,0.019932,0.004009,-0.789598,1.513558,0.575168,-0.010144,0.019930,-0.004009,-0.999793,-0.065813,-0.050313,-0.681039,6.415803,16.090412,-48.728771,,,,,,,
1508437068.069501,0.031911,0.040978,-0.790100,2.034809,0.577084,0.032089,0.031879,-0.040966,-0.998652,-0.015278,0.087841,-0.708761,7.240698,13.752209,-49.325512,,,,,,,
1508437068.089481,0.041303,0.086318,-0.790796,2.385437,0.381970,0.076241,0.041137,-0.086211,-0.995427,0.068222,0.134138,-0.649470,7.647950,12.163825,-49.680046,,,,,,,
1508437068.109512,0.044500,0.136809,-0.790055,2.564398,0.040852,0.175955,0.044070,-0.136382,-0.989676,0.071836,0.163360,-0.585703,7.942833,10.371265,-50.039036,,,,,,,
1508437068.129517,0.046823,0.189692,-0.788300,2.738447,0.235620,0.239111,0.045966,-0.188556,-0.980986,0.001275,0.283161,-0.286684,8.148355,6.439357,-50.662571,,,,,,,
1508437068.149518,0.054172,0.250971,-0.784750,3.236805,0.479168,0.371691,0.052449,-0.248345,-0.967251,-0.014714,0.432763,-0.084644,8.528057,3.417097,-50.893543,,,,,,,
1508437068.169528,0.062293,0.315357,-0.780332,3.439392,0.429987,0.437296,0.059183,-0.310156,-0.948842,0.058890,0.421148,0.054021,8.912611,1.019943,-50.932133,,,,,,,
1508437068.189533,0.066725,0.386435,-0.774047,3.566624,0.262423,0.582515,0.061759,-0.376889,-0.924197,0.062127,0.456723,0.263400,9.391875,-3.504166,-50.735298,,,,,,,
1508437068.209525,0.065580,0.457164,-0.765712,3.440079,0.023789,0.609529,0.058803,-0.441405,-0.895379,0.074360,0.447981,0.406717,8.213897,-5.196613,-51.099220,,,,,,,
1508437068.229544,0.061459,0.523986,-0.757020,3.209996,0.021733,0.601202,0.053179,-0.500335,-0.864197,0.005018,0.480667,0.561051,8.148755,-8.772913,-50.618546,,,,,,,
1508437068.249547,0.057402,0.584716,-0.747247,2.870572,0.062355,0.572077,0.047839,-0.551962,-0.832496,0.004514,0.505896,0.592322,8.096950,-10.460342,-50.305309,,,,,,,
1508437068.269526,0.053066,0.637032,-0.738454,2.415563,0.024334,0.465273,0.042638,-0.594812,-0.802733,0.006632,0.458200,0.781157,7.924332,-15.581240,-48.990135,,,,,,,
1508437068.289558,0.048924,0.679304,-0.730427,1.894172,0.054404,0.408714,0.038048,-0.628251,-0.777079,0.002098,0.462800,0.813136,7.861787,-16.766428,-48.607437,,,,,,,
1508437068.309541,0.044017,0.710536,-0.722035,1.328192,-0.007177,0.378043,0.033355,-0.652241,-0.757278,0.009431,0.439335,0.894027,7.694898,-19.493170,-47.606812,,,,,,,
1508437068.329543,0.037938,0.729842,-0.714072,0.723586,-0.060176,0.322751,0.028268,-0.666752,-0.744744,-0.001748,0.423130,0.932137,7.527022,-20.592611,-47.168762,,,,,,,
1508437068.349555,0.031266,0.737058,-0.706005,0.118936,-0.064238,0.298739,0.023147,-0.672113,-0.740087,-0.017441,0.420053,0.940542,7.431444,-20.922571,-47.038528,,,,,,,
1508437068.369567,0.027029,0.731459,-0.700946,-0.529371,0.003478,0.076452,0.020112,-0.667956,-0.743929,-0.067766,0.463519,0.903108,7.180700,-21.030315,-47.029427,,,,,,,
1508437068.389507,0.030949,0.713677,-0.701557,-1.078647,0.291570,-0.094723,0.023392,-0.654618,-0.755598,-0.098634,0.455949,0.863355,7.280917,-20.321148,-47.324863,,,,,,,
1508437068.409524,0.041390,0.687512,-0.704229,-1.403739,0.488893,-0.181578,0.031978,-0.634617,-0.772165,-0.109050,0.445606,0.847086,7.457186,-19.776115,-47.527878,,,,,,,
1508437068.429529,0.053444,0.657264,-0.708941,-1.547359,0.433745,-0.307585,0.042290,-0.610953,-0.790536,-0.065925,0.521079,0.763452,8.232298,-17.697063,-48.214592,,,,,,,
1508437068.449516,0.065413,0.625125,-0.715386,-1.606287,0.380641,-0.379279,0.053005,-0.585199,-0.809156,-0.116970,0.567163,0.763685,8.625597,-16.518513,-48.562759,,,,,,,
1508437068.469541,0.078637,0.591553,-0.723718,-1.668943,0.450135,-0.498599,0.065208,-0.557651,-0.827510,-0.132423,0.574100,0.782817,9.001658,-15.290737,-48.895470,,,,,,,
1508437068.489544,0.090758,0.555978,-0.732027,-1.816148,0.295709,-0.496250,0.076982,-0.527774,-0.845889,-0.119829,0.559848,0.744998,8.504849,-13.626759,-50.892834,,,,,,,
1508437068.509550,0.096547,0.514066,-0.739276,-2.245424,-0.032226,-0.521028,0.083938,-0.491722,-0.866697,-0.075042,0.502083,0.753141,8.774921,-12.108812,-51.229668,,,,,,,
1508437068.529556,0.090439,0.458544,-0.743862,-3.119390,-0.702306,-0.386964,0.080986,-0.442643,-0.893033,-0.041496,0.384919,0.725980,8.831272,-10.303005,-51.613544,,,,,,,
1508437068.549559,0.064152,0.379482,-0.743178,-4.479539,-1.632136,-0.275425,0.059547,-0.370439,-0.926946,-0.074699,0.052324,0.359701,7.596160,-5.033570,-52.583862,,,,,,,
1508437068.569540,0.031261,0.272973,-0.749826,-5.694592,-1.637227,-0.775601,0.030099,-0.269595,-0.962503,-0.282159,-0.057874,0.065164,6.263459,-1.155812,-52.986172,,,,,,,
1508437068.589570,0.008969,0.150004,-0.765565,-6.331509,-0.972112,-0.900996,0.008869,-0.149442,-0.988731,-0.361743,-0.118441,-0.169244,4.523624,5.057923,-52.934448,,,,,,,
1508437068.609575,0.004112,0.031217,-0.782004,-5.468332,-0.007441,-0.794075,0.004110,-0.031212,-0.999504,-0.242208,0.382057,-1.164039,3.416389,13.221861,-51.590813,,,,,,,
1508437068.629568,0.004863,-0.050682,-0.797424,-3.183946,0.030385,-0.818730,0.004856,0.050661,-0.998704,0.062999,0.640623,-1.626540,3.359137,14.641340,-51.209850,,,,,,,
1508437068.649587,0.003112,-0.087452,-0.811036,-1.117314,-0.135814,-0.533168,0.003100,0.087341,-0.996174,0.237775,0.429093,-1.671459,2.995371,20.011482,-49.382889,,,,,,,
1508437068.669574,-0.003378,-0.095781,-0.815353,-0.137947,-0.396981,-0.030020,-0.003363,0.095635,-0.995411,0.314139,0.070213,-1.304974,2.540540,21.072563,-48.965233,,,,,,,
1508437068.689596,-0.010710,-0.099089,-0.811501,-0.260169,-0.326223,0.292135,-0.010657,0.098927,-0.995038,0.249854,-0.153904,-0.955799,2.258963,21.153879,-48.943962,,,,,,,
1508437068.709582,-0.014956,-0.105295,-0.804531,-0.279512,-0.237914,0.347383,-0.014872,0.105101,-0.994350,0.159816,-0.046446,-0.805164,2.091337,21.405293,-48.842003,,,,,,,
1508437068.729607,-0.019541,-0.106022,-0.799855,0.169463,-0.263269,0.185336,-0.019430,0.105823,-0.994195,0.078833,0.022030,-0.690345,1.949699,21.607893,-48.758579,,,,,,,
1508437068.749593,-0.022543,-0.096629,-0.796121,0.597991,-0.101406,0.158142,-0.022436,0.096478,-0.995082,0.018332,-0.052457,-0.429387,1.837615,21.375650,-48.865185,,,,,,,
1508437068.769618,-0.024319,-0.085783,-0.792496,0.448492,-0.152597,0.206980,-0.024227,0.085678,-0.996028,0.060726,-0.217377,-0.242467,1.805763,20.796381,-49.115688,,,,,,,
1508437068.789622,-0.029208,-0.080387,-0.787358,0.197428,-0.270807,0.222745,-0.029109,0.080300,-0.996346,-0.013295,-0.129662,-0.073509,1.665548,20.322222,-49.318707,,,,,,,
1508437068.809621,-0.030522,-0.076944,-0.785947,0.195633,0.057793,-0.031534,-0.030427,0.076868,-0.996577,-0.138122,-0.018671,0.036494,1.569891,20.188797,-49.376606,,,,,,,
1508437068.829633,-0.027271,-0.072585,-0.789029,0.205282,0.199856,-0.226602,-0.027196,0.072521,-0.996996,-0.069407,-0.036770,0.054934,1.628613,19.993109,-49.454269,,,,,,,
1508437068.849637,-0.024931,-0.069893,-0.794256,0.074936,0.089182,-0.265418,-0.024868,0.069836,-0.997248,-0.002797,-0.054608,0.076426,1.719173,19.790466,-49.532646,,,,,,,
1508437068.869638,-0.024758,-0.069486,-0.798240,-0.015350,-0.003714,-0.143511,-0.024696,0.069430,-0.997281,0.012794,-0.032793,0.070691,1.690300,19.759756,-49.545902,,,,,,,
1508437068.889649,-0.025494,-0.071035,-0.799819,0.006242,0.030183,-0.052317,-0.025427,0.070975,-0.997154,-0.014033,0.016778,0.039619,1.645187,19.777388,-49.540382,,,,,,,
1508437068.909652,-0.025290,-0.069733,-0.802052,0.090524,0.004798,-0.153311,-0.025226,0.069676,-0.997251,0.027423,0.047496,0.010282,1.584285,19.809919,-49.529369,,,,,,,
1508437068.929640,-0.024542,-0.067417,-0.804246,0.153124,-0.098681,-0.081482,-0.024484,0.067366,-0.997428,0.033288,0.006334,0.031867,1.526599,19.730623,-49.562820,,,,,,,
1508437068.949664,-0.026996,-0.065231,-0.805122,0.061321,-0.125377,-0.037308,-0.026936,0.065185,-0.997510,0.015781,-0.038284,0.050412,1.502596,19.612976,-49.610226,,,,,,,
1508437068.969668,-0.028395,-0.065641,-0.806519,-0.067667,0.001545,-0.100897,-0.028330,0.065594,-0.997444,-0.016881,-0.019589,0.045296,1.433360,19.574341,-49.627533,,,,,,,
1508437068.989675,-0.026685,-0.067035,-0.809250,-0.056368,0.120922,-0.137825,-0.026622,0.066985,-0.997399,0.017909,0.031679,0.012459,1.351750,19.641134,-49.603424,,,,,,,
1508437069.009658,-0.026122,-0.066692,-0.811410,0.059865,-0.047519,-0.085353,-0.026061,0.066642,-0.997437,0.062820,0.029076,-0.013931,1.402594,19.684937,-49.584648,,,,,,,
1508437069.029678,-0.028792,-0.064996,-0.812325,0.073241,-0.165877,-0.028199,-0.028727,0.064950,-0.997475,0.019648,-0.031762,0.012657,1.270654,19.600155,-49.621777,,,,,,,
1508437069.049689,-0.032619,-0.063371,-0.813128,-0.030825,-0.105077,-0.057792,-0.032547,0.063329,-0.997462,-0.009811,-0.024175,0.036372,1.134575,19.564417,-49.639172,,,,,,,
1508437069.069689,-0.032779,-0.064668,-0.815371,-0.077594,0.069781,-0.131735,-0.032705,0.064623,-0.997374,0.001928,0.013013,0.018248,0.981429,19.534981,-49.654030,,,,,,,
1508437069.089698,-0.025805,-0.067565,-0.817693,-0.023263,0.151803,-0.129768,-0.025744,0.067513,-0.997386,0.071612,0.032172,-0.008611,1.037734,19.621828,-49.618629,,,,,,,
1508437069.109701,-0.023154,-0.067064,-0.820416,0.043184,0.121951,-0.125119,-0.023100,0.067014,-0.997485,0.151777,0.041461,-0.024610,1.336205,19.722252,-49.571651,,,,,,,
1508437069.129710,-0.021269,-0.066059,-0.822004,0.043438,0.115414,-0.052516,-0.021221,0.066011,-0.997593,0.203228,0.021529,-0.035457,1.390078,19.693977,-49.581409,,,,,,,
1508437069.149712,-0.017656,-0.065060,-0.821404,0.061808,0.207807,0.086882,-0.017618,0.065014,-0.997729,0.365945,0.007710,-0.075178,1.571007,19.624744,-49.603455,,,,,,,
1508437069.169698,-0.012367,-0.062999,-0.817309,0.148000,0.241450,0.298523,-0.012342,0.062958,-0.997940,0.492445,-0.006622,-0.106980,1.870739,19.535767,-49.628174,,,,,,,
1508437069.189725,-0.008293,-0.058652,-0.806795,0.260823,0.132019,0.673231,-0.008278,0.058618,-0.998246,0.555749,-0.030405,-0.101379,2.140594,19.390247,-49.674313,,,,,,,
1508437069.209729,-0.006493,-0.052195,-0.788813,0.350943,0.033371,0.985954,-0.006484,0.052171,-0.998617,0.533278,0.005980,-0.054468,2.612699,18.979765,-49.810074,,,,,,,
1508437069.229737,-0.003594,-0.046078,-0.767327,0.280566,0.106604,1.128895,-0.003590,0.046062,-0.998932,0.462636,-0.042507,-0.003647,2.947270,18.684401,-49.902985,,,,,,,
1508437069.249741,-0.000183,-0.041576,-0.743255,0.200636,0.117057,1.238633,-0.000183,0.041564,-0.999136,0.434525,-0.056579,0.005728,3.342538,18.421261,-49.975853,,,,,,,
1508437069.269744,0.002563,-0.037732,-0.717124,0.187139,0.081718,1.334056,0.002561,0.037723,-0.999285,0.270693,-0.054172,0.041582,4.182589,17.972691,-50.075836,,,,,,,
1508437069.289724,0.007756,-0.034645,-0.689932,0.111727,0.305342,1.380986,0.007751,0.034638,-0.999370,0.127823,-0.028916,0.045100,4.818091,17.684792,-50.121208,,,,,,,
1508437069.309757,0.013406,-0.033438,-0.660823,0.019628,0.108042,1.508674,0.013398,0.033432,-0.999351,0.093810,-0.030075,-0.008736,5.418331,17.516476,-50.119019,,,,,,,
1508437069.329760,0.011936,-0.032080,-0.630259,0.077199,-0.199793,1.492835,0.011929,0.032075,-0.999414,-0.098599,0.043670,-0.007193,6.086627,17.255112,-50.132980,,,,,,,
1508437069.349766,0.011329,-0.028334,-0.603658,0.220089,0.039314,1.226950,0.011324,0.028330,-0.999534,-0.321154,0.138860,0.023720,6.332247,17.033840,-50.178200,,,,,,,
1508437069.369772,0.015200,-0.024330,-0.581496,0.138828,0.196258,1.059458,0.015195,0.024328,-0.999589,-0.352139,0.093882,0.031510,6.807388,16.663891,-50.240177,,,,,,,
1508437069.389777,0.018162,-0.023464,-0.562309,-0.033731,0.089080,0.875606,0.018156,0.023462,-0.999560,-0.425871,0.099432,-0.005567,7.430214,16.367233,-50.249447,,,,,,,
1508437069.409780,0.022509,-0.024683,-0.548305,-0.083389,0.298425,0.601766,0.022500,0.024680,-0.999442,-0.503686,0.174493,0.029685,7.829701,16.313120,-50.206367,,,,,,,
1508437069.429765,0.030072,-0.025763,-0.538784,-0.064942,0.365879,0.408816,0.030058,0.025760,-0.999216,-0.495314,0.168958,0.019510,8.085552,16.307238,-50.167713,,,,,,,
1508437069.449791,0.036027,-0.027519,-0.531305,-0.112835,0.228565,0.363926,0.036005,0.027515,-0.998973,-0.352686,0.053021,-0.010091,5.160444,14.492514,-50.467594,,,,,,,
1508437069.469797,0.040133,-0.028763,-0.524483,-0.037972,0.174344,0.301745,0.040105,0.028759,-0.998782,-0.330328,0.122609,-0.002332,5.474338,14.549549,-50.418087,,,,,,,
1508437069.489802,0.043374,-0.028510,-0.520591,0.009644,0.173599,0.135377,0.043343,0.028506,-0.998653,-0.281853,0.123364,0.003582,5.597823,14.546135,-50.405510,,,,,,,
1508437069.509807,0.046166,-0.028527,-0.517594,-0.000505,0.053110,0.195778,0.046130,0.028523,-0.998528,-0.160404,-0.010807,-0.029823,1.781907,14.988770,-53.599327,,,,,,,
1508437069.529812,0.045539,-0.027610,-0.513201,0.054391,-0.053433,0.198348,0.045506,0.027606,-0.998583,-0.186635,0.050839,-0.004713,1.836390,14.957170,-53.606319,,,,,,,
1508437069.549818,0.046442,-0.026009,-0.511139,0.072695,0.122596,0.063560,0.046410,0.026006,-0.998584,-0.207085,0.078349,0.049533,-0.607676,15.423430,-56.726448,,,,,,,
1508437069.569821,0.049271,-0.025200,-0.510688,0.014743,0.114207,0.004013,0.049235,0.025197,-0.998469,-0.111979,0.011302,0.045375,-0.407403,15.340160,-56.750816,,,,,,,
1508437069.589803,0.050668,-0.025494,-0.510628,-0.032125,0.043909,0.006134,0.050629,0.025491,-0.998392,-0.106248,-0.006479,0.056360,-0.325909,15.337595,-56.752033,,,,,,,
1508437069.609833,0.051280,-0.026762,-0.511275,-0.079482,0.039837,-0.082275,0.051240,0.026759,-0.998328,-0.115616,0.003850,0.051962,-0.286166,15.365587,-56.744675,,,,,,,
1508437069.629837,0.052759,-0.029418,-0.514463,-0.154935,0.100801,-0.196130,0.052711,0.029413,-0.998177,-0.100304,0.024587,0.037926,-0.245855,15.519085,-56.703075,,,,,,,
1508437069.649831,0.053899,-0.033204,-0.517764,-0.183413,0.009111,-0.152127,0.053844,0.033198,-0.997997,-0.036449,0.007833,-0.018513,-0.208601,15.662637,-56.663742,,,,,,,
1508437069.669849,0.052459,-0.035961,-0.519778,-0.088724,-0.094375,-0.084587,0.052401,0.035953,-0.997979,-0.052325,0.012524,-0.039222,-0.236309,15.815013,-56.621292,,,,,,,
1508437069.689852,0.050527,-0.036712,-0.521891,-0.008689,-0.085754,-0.144485,0.050471,0.036704,-0.998051,-0.179377,0.052224,-0.046795,-0.362266,15.933191,-56.587482,,,,,,,
1508437069.709859,0.048736,-0.036942,-0.525557,-0.004532,-0.096312,-0.192318,0.048683,0.036934,-0.998131,-0.241829,0.015449,-0.053550,-0.538656,15.950514,-56.581200,,,,,,,
1508437069.729864,0.045886,-0.036966,-0.530233,0.028547,-0.162187,-0.280957,0.045839,0.036957,-0.998265,-0.302339,0.053955,-0.086116,-0.718817,15.951042,-56.579052,,,,,,,
1508437069.749868,0.042696,-0.036270,-0.538630,0.070455,-0.095723,-0.496279,0.042655,0.036262,-0.998432,-0.390403,0.068581,-0.073285,-1.075366,15.891088,-56.590263,,,,,,,
1508437069.769874,0.041978,-0.034885,-0.551259,0.104705,0.018694,-0.719755,0.041940,0.034878,-0.998511,-0.411508,0.090808,-0.077661,-1.304044,15.778616,-56.616920,,,,,,,
1508437069.789880,0.043055,-0.033946,-0.568170,0.064348,0.106365,-0.875610,0.043017,0.033939,-0.998498,-0.381533,0.093792,-0.049293,-1.403568,15.710388,-56.633514,,,,,,,
1508437069.809871,0.043031,-0.032977,-0.585431,0.121669,-0.068404,-0.847527,0.042994,0.032972,-0.998531,-0.275019,0.086581,-0.037434,-1.676788,15.542688,-56.672344,,,,,,,
1508437069.829889,0.037181,-0.029873,-0.603040,0.225051,-0.364430,-0.914754,0.037155,0.029869,-0.998863,-0.247696,0.097817,0.002144,-2.157510,15.323381,-56.715786,,,,,,,
1508437069.849887,0.029331,-0.025740,-0.623686,0.238233,-0.314010,-1.093567,0.029317,0.025737,-0.999239,-0.251653,0.096043,0.044191,-2.514318,15.170168,-56.742271,,,,,,,
1508437069.869899,0.025507,-0.022920,-0.648140,0.115050,-0.101647,-1.269295,0.025498,0.022918,-0.999412,-0.071488,0.031907,0.152610,-3.474330,14.696656,-56.816185,,,,,,,
1508437069.889905,0.020237,-0.024276,-0.672011,-0.129684,-0.385272,-1.101854,0.020230,0.024274,-0.999501,0.181430,-0.092892,0.155384,-3.862071,14.581468,-56.820827,,,,,,,
1508437069.909899,0.006272,-0.027032,-0.690399,-0.080564,-0.793781,-0.845386,0.006269,0.027028,-0.999615,0.262728,-0.075918,0.154797,-4.435205,14.616164,-56.770046,,,,,,,
1508437069.929915,-0.010283,-0.028889,-0.706534,-0.173289,-0.824821,-0.759562,-0.010278,0.028885,-0.999530,0.359155,-0.069809,0.244220,-6.107147,14.637489,-56.609081,,,,,,,
1508437069.949920,-0.028512,-0.038581,-0.717650,-0.689786,-0.913814,-0.404938,-0.028487,0.038571,-0.998850,0.443068,-0.214398,0.161798,-7.278625,14.966218,-56.384178,,,,,,,
1508437069.969926,-0.044248,-0.055726,-0.726501,-0.916907,-0.575869,-0.509901,-0.044165,0.055697,-0.997470,0.275061,0.041211,0.006000,-8.113820,15.585495,-56.101692,,,,,,,
1508437069.989930,-0.047955,-0.071470,-0.741557,-0.730430,0.113837,-0.783420,-0.047814,0.071409,-0.996300,0.253716,0.137011,-0.107093,-8.908531,16.680933,-55.664402,,,,,,,
1508437070.009915,-0.046504,-0.081480,-0.755766,-0.424599,0.036672,-0.587397,-0.046333,0.081390,-0.995605,0.455741,0.007905,-0.201218,-8.994817,17.227304,-55.483822,,,,,,,
1508437070.029942,-0.050697,-0.086807,-0.763639,-0.213965,-0.267635,-0.255788,-0.050485,0.086698,-0.994955,0.388635,-0.020170,-0.177638,-9.174643,17.462448,-55.380772,,,,,,,
1508437070.049945,-0.055407,-0.089624,-0.765988,-0.121570,-0.161555,-0.045201,-0.055156,0.089504,-0.994458,0.245006,-0.043666,-0.119601,-9.455805,17.605089,-55.288246,,,,,,,
1508437070.069936,-0.056763,-0.091017,-0.767097,-0.038792,0.015354,-0.095813,-0.056498,0.090891,-0.994257,0.158579,0.009847,-0.049353,-9.733825,17.770473,-55.186989,,,,,,,
1508437070.089957,-0.055369,-0.090863,-0.769267,0.024272,0.068546,-0.068908,-0.055112,0.090738,-0.994349,0.163022,-0.066858,-0.052465,-9.717403,17.772322,-55.189293,,,,,,,
1508437070.109961,-0.055217,-0.090376,-0.769112,0.008702,-0.000860,0.016349,-0.054964,0.090253,-0.994401,0.118013,-0.088575,-0.025527,-9.680109,17.729218,-55.209705,,,,,,,
1508437070.129964,-0.053248,-0.091059,-0.769798,-0.056291,0.177213,-0.065091,-0.053003,0.090933,-0.994446,0.046395,-0.023855,-0.014908,-9.621384,17.748625,-55.213734,,,,,,,
1508437070.149973,-0.049053,-0.092228,-0.771797,-0.060797,0.217758,-0.097665,-0.048825,0.092098,-0.994552,0.068844,-0.011684,-0.021775,-9.474744,17.787699,-55.226517,,,,,,,
1508437070.169977,-0.046353,-0.092562,-0.772517,0.009423,0.097178,-0.002135,-0.046138,0.092430,-0.994650,0.074703,-0.015785,-0.032679,-9.370719,17.812922,-55.236137,,,,,,,
1508437070.189956,-0.043993,-0.092141,-0.772461,0.006091,0.139785,-0.000617,-0.043793,0.092010,-0.994795,-0.000870,-0.011352,-0.010241,-9.138181,17.805357,-55.277519,,,,,,,
1508437070.209979,-0.040777,-0.092677,-0.772657,-0.034694,0.171770,-0.009581,-0.040591,0.092544,-0.994881,0.001559,-0.009246,-0.024818,-9.015981,17.814255,-55.294716,,,,,,,
1508437070.229970,-0.037855,-0.092610,-0.772621,0.031816,0.131246,0.004819,-0.037683,0.092477,-0.995001,-0.021643,0.003104,-0.034128,-12.123652,17.143196,-57.180206,,,,,,,
1508437070.249997,-0.035197,-0.091282,-0.772621,0.078850,0.131264,-0.010145,-0.035043,0.091156,-0.995220,-0.033255,-0.007217,-0.012898,-11.971154,17.081091,-57.230904,,,,,,,
1508437070.269976,-0.032832,-0.089918,-0.772388,0.052319,0.101363,0.030828,-0.032694,0.089797,-0.995423,-0.026922,-0.030273,-0.012176,-11.897836,17.034849,-57.259968,,,,,,,
1508437070.289983,-0.031129,-0.089289,-0.771485,0.033124,0.087504,0.038507,-0.031000,0.089170,-0.995534,-0.027716,-0.010343,-0.033794,-11.717535,16.961428,-57.318913,,,,,,,
1508437070.309998,-0.029278,-0.088037,-0.770964,0.083402,0.084311,0.031052,-0.029161,0.087924,-0.995700,-0.019408,0.009626,-0.040173,-11.631632,16.929062,-57.345970,,,,,,,
1508437070.330019,-0.028580,-0.086087,-0.769314,0.105315,-0.014896,0.098585,-0.028470,0.085981,-0.995890,-0.003314,-0.012892,-0.045416,-11.553516,16.863766,-57.380993,,,,,,,
1508437070.350023,-0.032622,-0.082018,-0.767654,0.047602,-0.045768,0.089479,-0.032506,0.081926,-0.996108,-0.034602,-0.019960,-0.060288,-11.529662,16.732073,-57.424328,,,,,,,
1508437070.370028,-0.032849,-0.082321,-0.766356,-0.040453,0.013989,0.048159,-0.032732,0.082228,-0.996076,-0.040495,-0.002760,-0.108691,-11.739145,16.587990,-57.423687,,,,,,,
1508437070.390035,-0.031042,-0.082852,-0.766076,-0.000357,0.146176,-0.006037,-0.030931,0.082757,-0.996090,-0.042235,0.048041,-0.202626,-11.697058,16.629230,-57.420345,,,,,,,
1508437070.410037,-0.027072,-0.081784,-0.766788,0.066627,0.229361,-0.062741,-0.026978,0.081693,-0.996292,-0.006255,0.057132,-0.341064,-11.465313,16.589912,-57.478432,,,,,,,
1508437070.430022,-0.021480,-0.081716,-0.769218,-0.058138,0.347786,-0.153958,-0.021406,0.081625,-0.996433,0.042113,0.036188,-0.523525,-11.277246,16.534048,-57.531708,,,,,,,
1508437070.450050,-0.014347,-0.084506,-0.773173,-0.150270,0.320229,-0.212136,-0.014295,0.084405,-0.996329,0.061368,0.049613,-0.623010,-11.014080,16.561352,-57.574821,,,,,,,
1508437070.470053,-0.012286,-0.086806,-0.777132,-0.063745,0.055943,-0.168915,-0.012240,0.086697,-0.996159,0.137972,0.080234,-0.856105,-10.675679,16.745762,-57.585220,,,,,,,
1508437070.490041,-0.005121,-0.083798,-0.777240,0.285532,0.530476,0.068124,-0.005103,0.083700,-0.996478,-0.094582,0.121241,-0.913617,-10.548949,16.714315,-57.617702,,,,,,,
1508437070.510065,0.007782,-0.074934,-0.777734,0.544587,0.670300,-0.103640,0.007760,0.074864,-0.997164,0.006842,0.129436,-1.024855,-9.895382,16.364388,-57.833702,,,,,,,
1508437070.530069,0.020349,-0.059617,-0.779426,0.900301,0.607197,-0.020887,0.020312,0.059582,-0.998017,-0.064074,0.127888,-0.962371,-8.982469,15.420593,-58.240616,,,,,,,
1508437070.550069,0.033799,-0.039007,-0.779314,1.102542,0.701780,0.065027,0.033767,0.038997,-0.998669,-0.062560,0.151982,-0.830051,-8.425874,14.583670,-58.538620,,,,,,,
1508437070.570080,0.048973,-0.012991,-0.776690,1.408912,0.805702,0.262688,0.048949,0.012991,-0.998717,-0.080230,0.231882,-0.662141,-7.566684,13.249924,-58.971462,,,,,,,
1508437070.590080,0.068011,0.023587,-0.771254,2.135383,1.048013,0.452696,0.067939,-0.023585,-0.997411,-0.108802,0.342081,-0.430705,-6.187112,10.977380,-59.595848,,,,,,,
1508437070.610067,0.087594,0.080445,-0.765016,3.223479,0.891937,0.592762,0.087200,-0.080358,-0.992945,-0.063350,0.398672,-0.104162,0.054268,11.185546,-50.171509,,,,,,,
1508437070.630093,0.096997,0.158204,-0.756205,4.149777,0.291325,0.920668,0.095635,-0.157545,-0.982870,-0.022180,0.275587,0.353292,1.560118,6.498885,-50.966953,,,,,,,
1508437070.650100,0.093077,0.247738,-0.745891,4.437015,-0.294503,0.859638,0.090105,-0.245211,-0.965273,-0.124132,0.300006,0.810168,1.815324,1.005014,-51.361408,,,,,,,
1508437070.670094,0.084580,0.331351,-0.739927,3.856027,-0.275657,0.563369,0.079884,-0.325321,-0.942223,-0.184330,0.219089,1.165826,1.542596,-2.366856,-51.325607,,,,,,,
1508437070.690112,0.083677,0.395359,-0.735406,2.772058,0.278843,0.408991,0.077132,-0.385140,-0.919629,-0.212005,0.202050,1.244077,1.274498,-6.177949,-51.014786,,,,,,,
1508437070.710116,0.096226,0.440538,-0.733341,1.978023,0.842874,0.246794,0.086904,-0.426426,-0.900338,-0.079214,0.328663,1.217049,1.765791,-9.437037,-50.498756,,,,,,,
1508437070.730123,0.109792,0.474201,-0.732073,1.489981,0.490445,0.226680,0.097481,-0.456627,-0.884301,0.094169,0.313530,1.001016,2.361629,-10.842913,-50.191174,,,,,,,
1508437070.750109,0.109545,0.498927,-0.729520,1.039457,-0.164670,0.281303,0.095998,-0.478484,-0.872833,0.130091,0.289992,0.897842,2.685752,-11.972977,-49.917274,,,,,,,
1508437070.770132,0.101747,0.513826,-0.724287,0.527116,-0.226347,0.292178,0.088455,-0.491513,-0.866366,-0.018372,0.158810,0.720874,2.346714,-13.442302,-49.559025,,,,,,,
1508437070.790115,0.099626,0.518486,-0.720564,0.049241,0.137402,0.099593,0.086390,-0.495566,-0.864264,-0.103434,0.135321,0.568640,2.180326,-13.745429,-49.483425,,,,,,,
1508437070.810142,0.105513,0.515380,-0.720615,-0.242958,0.345521,-0.063152,0.091637,-0.492866,-0.865266,-0.109307,0.114906,0.455888,2.257957,-13.786877,-49.468407,,,,,,,
1508437070.830146,0.111827,0.510403,-0.721891,-0.206223,0.191117,-0.095062,0.097371,-0.488529,-0.867098,-0.046559,0.063251,0.254457,2.751532,-13.453434,-49.535179,,,,,,,
1508437070.850149,0.114800,0.507050,-0.724978,-0.119395,0.042139,-0.183602,0.100136,-0.485601,-0.868427,-0.019173,0.050420,0.224902,2.871474,-13.311337,-49.566750,,,,,,,
1508437070.870158,0.117722,0.502835,-0.729850,-0.280284,0.060489,-0.283980,0.102912,-0.481912,-0.870155,-0.039023,0.025735,0.206596,2.937738,-13.211387,-49.589603,,,,,,,
1508437070.890161,0.125566,0.491887,-0.735946,-0.638700,0.340851,-0.342158,0.110388,-0.472290,-0.874503,-0.019400,0.007080,0.135459,3.232789,-12.680847,-49.709610,,,,,,,
1508437070.910158,0.136757,0.476551,-0.741281,-0.728904,0.466538,-0.325786,0.121141,-0.458718,-0.880286,0.051527,0.056771,0.135809,3.583986,-12.146450,-49.818859,,,,,,,
1508437070.930173,0.146576,0.464475,-0.746580,-0.437251,0.278958,-0.312621,0.130579,-0.447954,-0.884470,0.066336,0.100206,0.135507,3.984326,-11.589124,-49.921112,,,,,,,
1508437070.950177,0.149687,0.458247,-0.750649,-0.248454,-0.069732,-0.156291,0.133743,-0.442376,-0.886801,0.070527,0.064737,0.194830,4.421496,-10.940590,-50.030525,,,,,,,
1508437070.970174,0.147989,0.450692,-0.751308,-0.472996,-0.028312,-0.066088,0.132726,-0.435588,-0.890307,-0.008153,0.044170,0.212237,4.356881,-10.717810,-50.084393,,,,,,,
1508437070.990189,0.152594,0.437072,-0.752580,-0.759401,0.360951,-0.257055,0.137714,-0.423289,-0.895467,-0.061008,0.131037,0.222494,4.393542,-10.194523,-50.190319,,,,,,,
1508437071.010193,0.166282,0.421219,-0.758500,-0.670791,0.606272,-0.427022,0.151049,-0.408873,-0.900004,-0.028887,0.201430,0.242487,5.033459,-9.213568,-50.319721,,,,,,,
1508437071.030172,0.179303,0.411227,-0.765002,-0.287922,0.427014,-0.325544,0.163476,-0.399734,-0.901936,0.015754,0.201172,0.322239,5.530106,-8.738686,-50.352287,,,,,,,
1508437071.050205,0.184112,0.407992,-0.768284,-0.085798,0.015286,-0.076608,0.168047,-0.396766,-0.902406,-0.007403,0.129906,0.410173,5.958074,-8.445610,-50.353477,,,,,,,
1508437071.070209,0.180353,0.403173,-0.766444,-0.389667,-0.206479,0.060124,0.164995,-0.392339,-0.904901,-0.078081,0.068563,0.392084,6.001768,-8.394232,-50.356880,,,,,,,
1508437071.090200,0.179624,0.390841,-0.766046,-0.714746,0.154179,-0.203974,0.165187,-0.380966,-0.909713,-0.186610,0.181427,0.434478,5.771495,-7.873545,-50.467785,,,,,,,
1508437071.110191,0.187736,0.374114,-0.769070,-0.814208,0.382374,-0.309573,0.173726,-0.365448,-0.914477,-0.216313,0.194351,0.434588,5.906520,-7.318106,-50.535713,,,,,,,
1508437071.130211,0.192483,0.356948,-0.771602,-0.829859,-0.025769,-0.227935,0.179239,-0.349416,-0.919664,-0.007379,0.137975,0.421434,6.451163,-6.029368,-50.639206,,,,,,,
1508437071.150228,0.178700,0.338446,-0.767257,-1.040721,-0.959761,0.222952,0.167667,-0.332022,-0.928251,0.020260,-0.054529,0.442624,6.263969,-5.356119,-50.738293,,,,,,,
1508437071.170236,0.147955,0.314551,-0.752315,-1.469268,-1.414272,0.638258,0.140183,-0.309389,-0.940546,-0.132066,0.009249,0.485788,5.189013,-4.276115,-50.961639,,,,,,,
1508437071.190240,0.111538,0.275914,-0.731872,-2.524995,-1.505711,0.685161,0.107097,-0.272426,-0.956198,-0.198940,-0.071110,0.277166,4.159107,-5.622095,-52.945759,,,,,,,
1508437071.210226,0.083192,0.207668,-0.720636,-3.931945,-1.065822,-0.179602,0.081310,-0.206179,-0.975130,-0.220562,-0.088469,-0.057783,2.646510,-2.359088,-53.287804,,,,,,,
1508437071.230242,0.070683,0.122274,-0.729744,-4.254075,-0.492092,-0.990606,0.070097,-0.121970,-0.990055,-0.254636,0.069342,-0.458843,1.919596,0.939710,-53.362827,,,,,,,
1508437071.250249,0.068564,0.040830,-0.743206,-3.687969,0.008148,-0.851135,0.068454,-0.040818,-0.996819,-0.023044,0.147325,-1.129387,1.357000,6.538055,-52.986523,,,,,,,
1508437071.270245,0.068800,-0.009568,-0.751866,-1.693137,-0.059081,-0.508308,0.068743,0.009568,-0.997589,0.230589,0.527588,-1.451096,1.294066,9.116815,-52.605782,,,,,,,
1508437071.290266,0.062894,-0.023322,-0.760071,-0.216048,-0.414437,-0.376307,0.062835,0.023320,-0.997751,0.400452,0.320217,-1.277044,1.074418,10.673866,-52.317043,,,,,,,
1508437071.310270,0.054299,-0.022859,-0.762221,0.077384,-0.384478,0.053825,0.054258,0.022858,-0.998265,0.293581,-0.013595,-0.854564,0.457839,10.841809,-52.291538,,,,,,,
1508437071.330258,0.050109,-0.023021,-0.758395,-0.076961,-0.124836,0.211186,0.050075,0.023019,-0.998480,0.186162,-0.028847,-0.522958,0.234593,10.808186,-52.299973,,,,,,,
1508437071.350282,0.047900,-0.024181,-0.754835,-0.015975,-0.165253,0.172274,0.047867,0.024179,-0.998561,0.118194,-0.023797,-0.358983,0.151363,10.888031,-52.283714,,,,,,,
1508437071.370285,0.042580,-0.022303,-0.750627,0.131278,-0.315617,0.237256,0.042556,0.022301,-0.998845,0.018281,-0.088616,-0.196422,-0.071135,10.854671,-52.290825,,,,,,,
1508437071.390279,0.036524,-0.019876,-0.746476,0.082747,-0.266460,0.165137,0.036508,0.019874,-0.999136,-0.082041,-0.138634,-0.049570,-0.285766,10.752254,-52.311245,,,,,,,
1508437071.410297,0.035014,-0.020001,-0.745594,-0.062155,0.035420,-0.026801,0.035000,0.020000,-0.999187,-0.136150,-0.119456,0.037822,-0.488682,10.688771,-52.322754,,,,,,,
1508437071.430301,0.036971,-0.022701,-0.747947,-0.155939,0.114530,-0.168654,0.036953,0.022699,-0.999059,-0.066967,-0.088418,0.021047,-0.487043,10.711956,-52.318027,,,,,,,
1508437071.450307,0.039151,-0.025748,-0.751449,-0.119493,0.092153,-0.169423,0.039128,0.025745,-0.998902,-0.038136,-0.032749,-0.010100,-0.364605,10.929831,-52.273945,,,,,,,
1508437071.470312,0.039545,-0.026402,-0.754478,0.027464,-0.009118,-0.151004,0.039521,0.026399,-0.998870,-0.018280,-0.003419,-0.039658,-0.322007,11.031508,-52.252857,,,,,,,
1508437071.490319,0.038562,-0.025682,-0.757590,0.027546,-0.040004,-0.153755,0.038540,0.025680,-0.998927,-0.000896,-0.017882,-0.039220,-0.400541,10.987769,-52.261532,,,,,,,
1508437071.510305,0.038831,-0.025801,-0.760569,-0.009053,0.047329,-0.141132,0.038808,0.025798,-0.998914,0.012996,0.010686,-0.026035,-0.439195,10.975871,-52.263721,,,,,,,
1508437071.530322,0.039382,-0.025620,-0.763271,0.044574,0.017467,-0.130076,0.039359,0.025617,-0.998897,0.057076,0.043718,-0.028676,-0.427693,10.979621,-52.263031,,,,,,,
1508437071.550332,0.039092,-0.023153,-0.764657,0.170320,-0.041384,-0.014157,0.039072,0.023151,-0.998968,0.049124,0.045590,-0.010630,-0.447036,10.875316,-52.284672,,,,,,,
1508437071.570333,0.037468,-0.019752,-0.764190,0.136425,-0.095816,0.043172,0.037452,0.019751,-0.999103,0.081018,0.011637,0.032596,-0.494066,10.733489,-52.313549,,,,,,,
1508437071.590344,0.034989,-0.018710,-0.762868,-0.000273,-0.140607,0.085510,0.034976,0.018709,-0.999213,0.097135,-0.008119,0.058524,-0.590833,10.610474,-52.337635,,,,,,,
1508437071.610348,0.032681,-0.019508,-0.760633,-0.048386,-0.105530,0.129822,0.032669,0.019506,-0.999276,0.094238,0.014154,0.066155,-0.733188,10.637078,-52.330437,,,,,,,
1508437071.630355,0.030226,-0.019753,-0.757487,-0.002204,-0.118406,0.170493,0.030215,0.019752,-0.999348,0.119245,0.023522,0.047719,-0.830296,10.669472,-52.322388,,,,,,,
1508437071.650359,0.029009,-0.019336,-0.752602,0.008658,-0.043013,0.288818,0.029000,0.019335,-0.999392,0.110969,-0.005464,0.046801,-0.872116,10.665614,-52.322491,,,,,,,
1508437071.670363,0.028680,-0.019798,-0.746918,-0.062104,-0.012075,0.274560,0.028671,0.019797,-0.999393,0.165024,-0.012351,0.061435,-0.842645,10.680885,-52.319859,,,,,,,
1508437071.690359,0.053859,-0.016857,-0.740148,-0.172064,-0.022739,0.337705,0.053825,0.016856,-0.998408,0.168404,-0.037745,0.053248,-0.802831,10.753872,-52.305534,,,,,,,
1508437071.710375,0.053281,-0.020499,-0.733288,-0.196780,-0.010972,0.316227,0.053245,0.020498,-0.998371,0.200478,-0.010686,0.039509,0.565816,10.662157,-52.327404,,,,,,,
1508437071.730378,0.055015,-0.023044,-0.726568,-0.114708,0.139131,0.353442,0.054972,0.023042,-0.998222,0.201787,-0.004533,0.016761,0.685879,10.884580,-52.280155,,,,,,,
1508437071.750373,0.058660,-0.024247,-0.718458,-0.079217,0.162405,0.429851,0.058609,0.024245,-0.997987,0.306045,-0.017577,0.008698,0.874720,10.956222,-52.262367,,,,,,,
1508437071.770390,0.061058,-0.025963,-0.708313,-0.147078,0.089735,0.555713,0.060999,0.025960,-0.997800,0.361410,-0.052419,0.013196,1.125497,11.038665,-52.240215,,,,,,,
1508437071.790393,0.063004,-0.029117,-0.694338,-0.219106,0.069097,0.763995,0.062936,0.029113,-0.997593,0.392051,-0.063659,0.013538,1.232594,11.103078,-52.224148,,,,,,,
1508437071.810384,0.062908,-0.031618,-0.677395,-0.139174,-0.080245,0.858869,0.062835,0.031612,-0.997523,0.429612,-0.019207,-0.004140,1.566222,11.388178,-52.153767,,,,,,,
1508437071.830405,0.060472,-0.032531,-0.657669,-0.099583,-0.197875,1.081270,0.060403,0.032525,-0.997644,0.384284,-0.063211,-0.033560,1.669536,11.498622,-52.126320,,,,,,,
1508437071.850409,0.057788,-0.033815,-0.634489,-0.154133,-0.133014,1.147547,0.057723,0.033809,-0.997760,0.285127,-0.076030,-0.075101,1.747295,11.600259,-52.101246,,,,,,,
1508437071.870412,0.055240,-0.036147,-0.612720,-0.184226,-0.228623,1.019934,0.055176,0.036139,-0.997822,0.224121,-0.027930,-0.095302,1.844584,11.701045,-52.075356,,,,,,,
1508437071.890420,0.048079,-0.039859,-0.592981,-0.266936,-0.492764,1.012097,0.048023,0.039849,-0.998051,0.200421,-0.048500,-0.096172,1.803447,11.868631,-52.038857,,,,,,,
1508437071.910424,0.038845,-0.043119,-0.568511,-0.146268,-0.445451,1.308819,0.038799,0.043106,-0.998317,-0.148251,-0.001388,-0.133580,1.476434,12.145861,-51.985165,,,,,,,
1508437071.930410,0.034306,-0.040710,-0.545348,0.216818,-0.183924,0.990194,0.034271,0.040698,-0.998584,-0.329254,0.313366,-0.112302,1.422120,12.166374,-51.981880,,,,,,,
1508437071.950414,0.035631,-0.033585,-0.530144,0.356250,0.142528,0.727311,0.035604,0.033579,-0.998802,-0.368489,0.318716,-0.070611,1.464392,11.980598,-52.023842,,,,,,,
1508437071.970421,0.038909,-0.027436,-0.514596,0.219592,0.106219,0.789785,0.038884,0.027433,-0.998867,-0.374638,0.118319,-0.024158,1.913027,11.439199,-52.131031,,,,,,,
1508437071.990438,0.041822,-0.023787,-0.501496,0.135251,0.188653,0.594586,0.041798,0.023785,-0.998843,-0.451908,0.197162,0.039019,2.116885,11.269472,-52.160110,,,,,,,
1508437072.010452,0.048478,-0.020564,-0.490606,0.146151,0.391212,0.510601,0.048449,0.020562,-0.998614,-0.473086,0.184684,0.082278,-0.112134,12.577663,-49.792419,,,,,,,
1508437072.030444,0.056614,-0.017250,-0.482709,0.126510,0.352109,0.357636,0.056575,0.017249,-0.998249,-0.343044,0.144266,0.085652,0.525495,12.392097,-49.836281,,,,,,,
1508437072.050436,0.060510,-0.015167,-0.475412,0.072852,0.080419,0.392539,0.060466,0.015167,-0.998055,-0.263606,0.046097,0.059884,-1.561103,13.571251,-52.416817,,,,,,,
1508437072.070467,0.060037,-0.012790,-0.467719,0.120198,-0.045224,0.359138,0.059996,0.012790,-0.998117,-0.282088,0.068982,0.060113,-1.461558,13.519173,-52.433147,,,,,,,
1508437072.090471,0.062035,-0.010228,-0.463811,0.088699,0.191782,0.100878,0.061992,0.010227,-0.998024,-0.320262,0.076381,0.108437,-3.082316,14.738655,-55.804543,,,,,,,
1508437072.110478,0.066402,-0.010332,-0.464069,-0.063741,0.176173,-0.065124,0.066350,0.010331,-0.997743,-0.199422,0.009047,0.082841,-2.825722,14.702655,-55.827618,,,,,,,
1508437072.130483,0.068076,-0.013167,-0.466338,-0.160016,0.078354,-0.144672,0.068017,0.013167,-0.997597,-0.160501,0.002458,0.049523,-2.742104,14.779667,-55.811451,,,,,,,
1508437072.150486,0.071432,-0.015960,-0.469794,-0.101871,0.236144,-0.219513,0.071362,0.015959,-0.997323,-0.181515,0.089891,0.039223,-3.375615,16.460325,-59.996323,,,,,,,
1508437072.170466,0.076049,-0.018081,-0.474930,-0.082644,0.198944,-0.263772,0.075964,0.018080,-0.996947,-0.063375,0.051775,0.007765,-3.211987,16.532948,-59.985336,,,,,,,
1508437072.190478,0.078611,-0.019961,-0.478529,-0.080815,0.087894,-0.131008,0.078514,0.019959,-0.996713,-0.031059,0.008010,-0.028479,-3.069959,16.614632,-59.970203,,,,,,,
1508437072.210502,0.079060,-0.021074,-0.480448,-0.019533,0.011144,-0.111814,0.078960,0.021072,-0.996655,-0.064785,0.058533,-0.035007,-3.030231,16.705843,-59.946880,,,,,,,
1508437072.230489,0.079490,-0.021005,-0.483853,0.030420,0.037923,-0.192213,0.079389,0.021003,-0.996622,-0.094831,0.066887,-0.007940,-3.049845,16.701508,-59.947094,,,,,,,
1508437072.250513,0.080861,-0.020875,-0.487738,0.004592,0.086932,-0.192904,0.080755,0.020873,-0.996515,-0.081121,0.032014,0.006174,-3.057696,16.654346,-59.959812,,,,,,,
1508437072.270517,0.082336,-0.021650,-0.491400,-0.040227,0.057094,-0.181775,0.082224,0.021649,-0.996379,-0.070184,-0.016919,0.000316,-3.010665,16.649099,-59.963650,,,,,,,
1508437072.290517,0.081852,-0.023045,-0.495304,-0.050713,-0.040859,-0.204871,0.081739,0.023043,-0.996387,-0.081907,0.014753,-0.013394,-3.041551,16.684643,-59.952213,,,,,,,
1508437072.310529,0.080161,-0.023357,-0.499151,0.027594,-0.102668,-0.201901,0.080053,0.023355,-0.996517,-0.110220,0.031225,-0.027546,-3.168865,16.716389,-59.936771,,,,,,,
1508437072.330535,0.078457,-0.022976,-0.504371,0.036800,-0.055624,-0.290027,0.078356,0.022974,-0.996661,-0.183351,0.047812,-0.030073,-3.400011,16.649155,-59.942818,,,,,,,
1508437072.350515,0.077815,-0.023232,-0.510792,0.003389,-0.014000,-0.325793,0.077716,0.023230,-0.996705,-0.211047,0.075128,-0.031402,-3.512545,16.610796,-59.946968,,,,,,,
1508437072.370517,0.076466,-0.023102,-0.517109,0.063599,-0.100318,-0.316056,0.076371,0.023100,-0.996812,-0.219666,0.098940,-0.040832,-3.609353,16.588818,-59.947308,,,,,,,
1508437072.390548,0.072992,-0.021202,-0.524416,0.152456,-0.193936,-0.388340,0.072911,0.021201,-0.997113,-0.288121,0.143671,-0.041461,-3.979418,16.415224,-59.971661,,,,,,,
1508437072.410543,0.068932,-0.018445,-0.533949,0.169134,-0.192605,-0.523792,0.068865,0.018444,-0.997455,-0.349734,0.131596,-0.008495,-4.255718,16.241796,-59.999908,,,,,,,
1508437072.430560,0.065173,-0.017114,-0.546660,0.063643,-0.161382,-0.688400,0.065118,0.017113,-0.997731,-0.348977,0.080268,0.024388,-4.659919,16.006447,-60.033112,,,,,,,
1508437072.450564,0.062443,-0.017856,-0.562683,0.003980,-0.091754,-0.874901,0.062392,0.017855,-0.997892,-0.339034,0.080381,0.034956,-5.171542,15.852817,-60.031986,,,,,,,
1508437072.470571,0.060914,-0.018109,-0.582431,0.079345,-0.063752,-1.037442,0.060867,0.018108,-0.997982,-0.237563,0.101796,0.064708,-5.453005,15.762276,-60.030918,,,,,,,
1508437072.490575,0.056140,-0.017278,-0.602339,0.102001,-0.376076,-0.934830,0.056102,0.017277,-0.998276,-0.153194,0.057308,0.076767,-5.757929,15.605490,-60.043407,,,,,,,
1508437072.510579,0.045627,-0.016660,-0.621234,0.065811,-0.492085,-0.981104,0.045605,0.016659,-0.998821,-0.062206,0.025455,0.107646,-6.900908,15.259561,-60.011826,,,,,,,
1508437072.530569,0.038860,-0.016905,-0.641949,-0.013185,-0.268230,-1.049335,0.038844,0.016904,-0.999102,0.038045,-0.015958,0.135317,-7.499983,15.096845,-59.981091,,,,,,,
1508437072.550590,0.030704,-0.020546,-0.661757,-0.231506,-0.495298,-0.934983,0.030692,0.020544,-0.999318,0.187020,-0.105368,0.102543,-7.988921,14.989987,-59.944752,,,,,,,
1508437072.570594,0.017990,-0.026918,-0.678577,-0.308835,-0.622294,-0.808326,0.017983,0.026915,-0.999476,0.267128,-0.087080,0.012660,-9.332027,15.174328,-59.703846,,,,,,,
1508437072.590575,0.005902,-0.032043,-0.694362,-0.220235,-0.540310,-0.799985,0.005899,0.032038,-0.999469,0.315512,-0.008860,-0.009182,-10.060755,15.310825,-59.550446,,,,,,,
1508437072.610607,-0.004561,-0.036984,-0.708856,-0.274408,-0.489505,-0.630073,-0.004558,0.036976,-0.999306,0.375469,-0.041401,-0.011238,-10.727918,15.387029,-59.414196,,,,,,,
1508437072.630610,-0.015092,-0.042728,-0.718262,-0.282153,-0.511270,-0.398364,-0.015078,0.042715,-0.998974,0.398394,-0.048238,-0.091084,-11.893170,15.674112,-59.116585,,,,,,,
1508437072.650594,-0.024157,-0.047381,-0.725234,-0.210577,-0.372987,-0.308721,-0.024127,0.047364,-0.998586,0.315250,0.000976,-0.108271,-12.414804,15.841492,-58.964531,,,,,,,
1508437072.670622,-0.030142,-0.050183,-0.730379,-0.109037,-0.238966,-0.222238,-0.030099,0.050162,-0.998287,0.275888,0.028985,-0.112247,-12.929629,15.997450,-58.811581,,,,,,,
1508437072.690625,-0.033365,-0.050600,-0.733756,0.024643,-0.120925,-0.138746,-0.033316,0.050579,-0.998164,0.216223,0.049443,-0.090413,-13.118615,16.038555,-58.758511,,,,,,,
1508437072.710622,-0.034798,-0.049087,-0.736074,0.079125,-0.037946,-0.090940,-0.034749,0.049068,-0.998191,0.173757,0.008565,-0.043679,-13.423318,15.970735,-58.708141,,,,,,,
1508437072.730615,-0.035228,-0.048457,-0.736255,0.007775,-0.023253,0.028326,-0.035179,0.048438,-0.998206,0.148918,-0.032065,-0.030312,-13.479145,15.887247,-58.718002,,,,,,,
1508437072.750634,-0.036325,-0.047841,-0.736233,0.048285,-0.048689,-0.041712,-0.036276,0.047823,-0.998197,0.041158,0.030974,-0.017916,-13.541729,15.850474,-58.713543,,,,,,,
1508437072.770620,-0.035272,-0.047004,-0.737791,0.017674,0.125036,-0.083661,-0.035226,0.046986,-0.998274,-0.026160,-0.013432,0.029402,-13.565811,15.793650,-58.723293,,,,,,,
1508437072.790637,-0.032154,-0.047517,-0.739638,-0.047766,0.163433,-0.100164,-0.032112,0.047499,-0.998355,-0.014138,-0.020399,0.037952,-13.479311,15.761261,-58.751907,,,,,,,
1508437072.810631,-0.028871,-0.048322,-0.741009,-0.027196,0.150522,-0.038146,-0.028833,0.048303,-0.998416,-0.007727,-0.007257,-0.008130,-13.224256,15.801811,-58.798958,,,,,,,
1508437072.830648,-0.026510,-0.048088,-0.741561,0.031819,0.105749,-0.029011,-0.026476,0.048069,-0.998493,-0.011045,0.021099,-0.009686,-13.080190,15.798388,-58.832096,,,,,,,
1508437072.850668,-0.024035,-0.047536,-0.742305,0.013468,0.144131,-0.043416,-0.024005,0.047518,-0.998582,-0.039426,-0.002855,-0.000258,-12.989744,15.762424,-58.861774,,,,,,,
1508437072.870641,-0.021148,-0.047387,-0.743134,0.010335,0.120691,-0.040941,-0.021122,0.047369,-0.998654,-0.036418,-0.007269,0.001782,-12.915512,15.745920,-58.882523,,,,,,,
1508437072.890676,-0.019239,-0.047013,-0.743930,0.022196,0.095114,-0.036314,-0.019217,0.046995,-0.998710,-0.035242,-0.011076,-0.006691,-14.974092,15.594501,-59.505592,,,,,,,
1508437072.910683,-0.017435,-0.046674,-0.744548,0.009425,0.082314,-0.026522,-0.017415,0.046657,-0.998759,-0.044871,-0.011486,0.003505,-14.897799,15.567655,-59.531765,,,,,,,
1508437072.930688,-0.016092,-0.046339,-0.744889,0.022384,0.058846,-0.011263,-0.016074,0.046323,-0.998797,-0.047357,0.002032,0.005191,-14.765315,15.530934,-59.574345,,,,,,,
1508437072.950687,-0.023703,-0.044093,-0.745443,0.022527,0.007698,-0.014785,-0.023678,0.044079,-0.998747,-0.039570,-0.007214,-0.017213,-14.724954,15.508579,-59.590160,,,,,,,
1508437072.970699,-0.023452,-0.043986,-0.746171,-0.003306,0.024810,-0.045937,-0.023428,0.043971,-0.998758,-0.042033,-0.004238,-0.016501,-15.210130,15.374768,-59.502907,,,,,,,
1508437072.990703,-0.031091,-0.043752,-0.747581,-0.029033,0.031202,-0.054539,-0.031056,0.043738,-0.998560,-0.036892,-0.005179,-0.054189,-15.681190,15.327126,-59.392818,,,,,,,
1508437073.010693,-0.031562,-0.044196,-0.748384,-0.021240,-0.044480,-0.029989,-0.031526,0.044182,-0.998526,-0.019194,0.004829,-0.110529,-15.685523,15.338565,-59.388718,,,,,,,
1508437073.030715,-0.032212,-0.044975,-0.748724,-0.071521,-0.024273,-0.007852,-0.032174,0.044960,-0.998471,-0.031104,0.006020,-0.205326,-15.741009,15.356869,-59.369305,,,,,,,
1508437073.050718,-0.032434,-0.049365,-0.749727,-0.313783,0.033469,-0.087414,-0.032389,0.049345,-0.998256,0.003184,-0.017683,-0.432545,-15.756643,15.388874,-59.356865,,,,,,,
1508437073.070699,-0.028158,-0.055266,-0.754048,-0.243599,0.335294,-0.278447,-0.028111,0.055238,-0.998077,-0.052929,0.126708,-0.689575,-15.719871,15.809557,-59.255974,,,,,,,
1508437073.090714,-0.019523,-0.055628,-0.760776,0.137762,0.492967,-0.335401,-0.019492,0.055599,-0.998263,0.049170,0.133366,-0.860303,-15.379513,15.957585,-59.305588,,,,,,,
1508437073.110709,-0.013788,-0.044677,-0.765125,0.830726,0.116401,-0.152387,-0.013774,0.044662,-0.998907,0.128306,0.142380,-0.973749,-14.889813,15.401691,-59.576912,,,,,,,
1508437073.130724,-0.018775,-0.019726,-0.765701,1.437453,-0.432667,0.008668,-0.018770,0.019724,-0.999629,0.128786,0.083425,-0.882313,-14.948605,14.468894,-59.795631,,,,,,,
1508437073.150745,-0.028766,0.006931,-0.763234,1.130711,-0.457271,0.098824,-0.028761,-0.006931,-0.999562,-0.013246,-0.106411,-0.693446,-15.478197,12.777384,-60.045742,,,,,,,
1508437073.170749,-0.028785,0.018655,-0.765405,0.292245,0.409749,-0.289525,-0.028776,-0.018654,-0.999412,-0.191027,-0.067543,-0.530267,-15.894183,11.431588,-60.208145,,,,,,,
1508437073.190755,-0.005249,0.025749,-0.774132,0.553701,1.563645,-0.447207,-0.005247,-0.025747,-0.999655,-0.300234,0.200811,-0.469263,-14.923061,10.967514,-60.542076,,,,,,,
1508437073.210761,0.026396,0.051217,-0.776985,1.719238,1.347103,0.090342,0.026359,-0.051194,-0.998341,-0.192374,0.254548,-0.392299,-13.976891,10.492936,-60.851227,,,,,,,
1508437073.230765,0.039466,0.098630,-0.771634,2.695133,0.335156,0.489220,0.039264,-0.098470,-0.994365,0.118970,0.154256,-0.032307,-11.810776,7.153801,-61.787182,,,,,,,
1508437073.250753,0.039054,0.158316,-0.762844,3.013991,-0.019647,0.489861,0.038556,-0.157656,-0.986741,-0.165204,0.154558,0.411363,-5.990054,5.359031,-51.710636,,,,,,,
1508437073.270776,0.041645,0.210511,-0.760422,2.271358,0.260446,0.081162,0.040714,-0.208960,-0.977076,-0.220081,0.171637,0.601405,-5.961526,3.082876,-51.899384,,,,,,,
1508437073.290761,0.049896,0.243689,-0.762069,1.310604,0.463272,-0.014893,0.048402,-0.241285,-0.969247,-0.158753,-0.021792,0.780648,-5.519647,-0.236470,-52.039089,,,,,,,
1508437073.310762,0.060796,0.263355,-0.764293,0.859601,0.549824,-0.092584,0.058664,-0.260322,-0.963738,-0.161233,0.112067,0.760247,-5.143572,-1.142524,-52.065613,,,,,,,
1508437073.330792,0.072582,0.281445,-0.768824,1.012515,0.494559,-0.175069,0.069665,-0.277744,-0.958126,-0.144174,0.230136,0.685817,-4.715898,-1.833981,-52.086334,,,,,,,
1508437073.350796,0.077337,0.304919,-0.772264,1.258675,-0.051256,0.002204,0.073696,-0.300216,-0.951020,0.087025,0.213576,0.622453,-4.088365,-3.492143,-52.054581,,,,,,,
1508437073.370802,0.070336,0.327459,-0.772614,0.961473,-0.423100,0.078195,0.066543,-0.321638,-0.944522,0.079315,0.148176,0.589816,-4.252948,-4.454308,-51.967888,,,,,,,
1508437073.390715,0.066101,0.338910,-0.772507,0.321398,-0.063840,0.020150,0.062296,-0.332460,-0.941058,0.008917,0.127259,0.602419,-4.571705,-5.193951,-51.872074,,,,,,,
1508437073.410738,0.068969,0.339408,-0.772850,-0.091514,0.207982,-0.021869,0.064983,-0.332929,-0.940710,0.031529,0.101483,0.441107,-4.609700,-5.623009,-51.823948,,,,,,,
1508437073.430721,0.072114,0.337263,-0.772872,-0.061240,0.118447,-0.006755,0.067993,-0.330906,-0.941211,0.034119,0.112842,0.311847,-4.459181,-5.533428,-51.846760,,,,,,,
1508437073.450750,0.073020,0.338823,-0.773279,0.155198,0.003381,-0.023376,0.068807,-0.332377,-0.940633,0.038462,0.130305,0.222921,-4.356772,-5.503623,-51.858639,,,,,,,
1508437073.470754,0.073688,0.342724,-0.774295,0.194687,0.031081,-0.030205,0.069340,-0.336054,-0.939287,0.043895,0.060892,0.204256,-4.338164,-5.730106,-51.835663,,,,,,,
1508437073.490743,0.074905,0.344541,-0.774763,0.004137,0.074772,-0.014701,0.070437,-0.337765,-0.938591,0.035001,-0.012714,0.186745,-4.910746,-8.654281,-53.666637,,,,,,,
1508437073.510743,0.078237,0.342008,-0.775794,-0.169857,0.212377,-0.088008,0.073631,-0.335380,-0.939201,0.013650,-0.013314,0.173668,-4.847096,-8.659747,-53.671547,,,,,,,
1508437073.530742,0.084568,0.338300,-0.777592,-0.171229,0.306134,-0.095765,0.079679,-0.331884,-0.939949,0.006960,0.024358,0.151650,-4.465126,-8.410686,-53.744240,,,,,,,
1508437073.550752,0.090053,0.335351,-0.779123,-0.119484,0.201683,-0.072963,0.084922,-0.329100,-0.940469,0.054376,0.041503,0.122155,-4.378798,-8.366767,-53.758194,,,,,,,
1508437073.570781,0.093396,0.333032,-0.779778,-0.116015,0.156864,-0.033929,0.088136,-0.326910,-0.940937,0.036925,0.054587,0.109027,-4.005857,-8.164851,-53.818291,,,,,,,
1508437073.590784,0.097933,0.330331,-0.780374,-0.136660,0.257012,-0.039631,0.092490,-0.324356,-0.941403,-0.006843,0.055755,0.136227,-3.752197,-8.002131,-53.860996,,,,,,,
1508437073.610787,0.103950,0.327899,-0.781300,-0.102615,0.284771,-0.075247,0.098235,-0.322055,-0.941611,-0.013442,0.074268,0.193854,-3.444130,-7.870764,-53.900925,,,,,,,
1508437073.630796,0.109785,0.325619,-0.782325,-0.114193,0.266579,-0.032322,0.103807,-0.319896,-0.941749,-0.010576,0.072795,0.235465,-3.285295,-7.818042,-53.918507,,,,,,,
1508437073.650800,0.114850,0.322433,-0.781538,-0.204850,0.239836,0.035311,0.108693,-0.316875,-0.942219,-0.027928,0.082180,0.347523,-2.837545,-7.610907,-53.973537,,,,,,,
1508437073.670807,0.118840,0.317092,-0.781906,-0.283252,0.185804,-0.102466,0.112650,-0.311805,-0.943445,-0.059442,0.095191,0.400033,-2.664865,-7.422121,-54.008617,,,,,,,
1508437073.690813,0.122839,0.311555,-0.782868,-0.254171,0.192061,-0.038601,0.116631,-0.306539,-0.944686,-0.095498,0.072744,0.433638,-2.504944,-7.198791,-54.046490,,,,,,,
1508437073.710816,0.126516,0.306802,-0.782607,-0.234922,0.202696,-0.032372,0.120287,-0.302012,-0.945685,-0.136888,0.099100,0.533438,-2.196760,-6.793262,-54.112347,,,,,,,
1508437073.730810,0.132749,0.300339,-0.782649,-0.390602,0.384880,-0.027433,0.126434,-0.295844,-0.946832,-0.133713,0.156165,0.569406,-1.995309,-6.581986,-54.146248,,,,,,,
1508437073.750828,0.141880,0.290823,-0.780320,-0.520094,0.522086,0.093299,0.135467,-0.286741,-0.948382,-0.069290,0.181257,0.582598,-1.548313,-6.136096,-54.213203,,,,,,,
1508437073.770832,0.148700,0.281623,-0.775178,-0.455836,0.294896,0.233032,0.142316,-0.277915,-0.950005,-0.002271,0.199317,0.588341,-0.916599,-5.444167,-54.301392,,,,,,,
1508437073.790811,0.143146,0.274982,-0.766366,-0.376723,-0.514097,0.464363,0.137298,-0.271530,-0.952586,0.025437,0.100982,0.542506,-0.822459,-5.095726,-54.336704,,,,,,,
1508437073.810842,0.117492,0.264734,-0.754009,-0.820180,-1.378018,0.528407,0.113138,-0.261653,-0.958508,0.051184,0.056819,0.540387,-1.280601,-4.773374,-54.357109,,,,,,,
1508437073.830847,0.082705,0.234646,-0.739116,-2.136711,-1.554634,0.587404,0.080347,-0.232499,-0.969272,-0.144266,-0.145263,0.402057,-3.612717,-3.084061,-54.374229,,,,,,,
1508437073.850852,0.056458,0.169949,-0.728207,-3.894341,-0.873473,0.035030,0.055615,-0.169132,-0.984023,-0.177884,-0.132580,0.056106,-4.043744,-2.491662,-54.374260,,,,,,,
1508437073.870859,0.050751,0.079728,-0.734302,-4.641254,0.001916,-0.821615,0.050568,-0.079643,-0.995540,-0.169754,0.163719,-0.448109,-5.652048,3.426902,-54.179619,,,,,,,
1508437073.890862,0.056703,-0.002476,-0.746993,-3.494747,0.303974,-0.730889,0.056673,0.002476,-0.998390,-0.047823,0.414867,-0.986916,-5.633157,9.248113,-53.496357,,,,,,,
1508437073.910867,0.054683,-0.047409,-0.751588,-1.526079,-0.453943,-0.175428,0.054594,0.047391,-0.997383,0.204576,0.465839,-1.289390,-5.572287,11.580784,-53.046726,,,,,,,
1508437073.930874,0.036969,-0.064505,-0.751865,-0.606880,-0.987149,0.004356,0.036883,0.064460,-0.997238,0.335477,0.340112,-1.295395,-6.196021,13.033051,-52.639046,,,,,,,
1508437073.950849,0.025551,-0.073906,-0.750450,-0.420742,-0.200070,0.045051,0.025478,0.073839,-0.996945,0.069904,0.154646,-1.007435,-7.253284,13.771803,-52.314892,,,,,,,
1508437073.970863,0.031751,-0.079516,-0.752216,-0.132384,0.478838,-0.168675,0.031646,0.079432,-0.996338,0.131639,0.176854,-0.822998,-7.216728,14.070317,-52.240456,,,,,,,
1508437073.990868,0.035378,-0.075484,-0.752801,0.393450,-0.064095,0.130971,0.035270,0.075413,-0.996528,0.224343,0.033321,-0.599953,-6.834348,14.113276,-52.280277,,,,,,,
1508437074.010893,0.027684,-0.063124,-0.745605,0.676409,-0.563391,0.479216,0.027626,0.063082,-0.997626,0.056572,-0.116671,-0.294610,-7.022905,13.523281,-52.411068,,,,,,,
1508437074.030892,0.018209,-0.051325,-0.737233,0.470049,-0.390526,0.356372,0.018184,0.051302,-0.998518,-0.107799,-0.180392,0.004682,-7.370051,13.058744,-52.481159,,,,,,,
1508437074.050904,0.015732,-0.047816,-0.733320,-0.002774,0.014873,0.109863,0.015713,0.047798,-0.998733,-0.181042,-0.210594,0.107574,-7.638275,12.683366,-52.534840,,,,,,,
1508437074.070909,0.018999,-0.051458,-0.734275,-0.242822,0.212520,-0.149802,0.018972,0.051435,-0.998496,-0.143820,-0.088331,0.095939,-7.522714,12.791134,-52.525387,,,,,,,
1508437074.090890,0.022728,-0.055867,-0.739100,-0.184316,0.184010,-0.282720,0.022690,0.055838,-0.998182,-0.084931,-0.009543,0.050794,-7.395231,12.956511,-52.502949,,,,,,,
1508437074.110921,0.025354,-0.058594,-0.745168,-0.107208,0.133976,-0.308710,0.025308,0.058560,-0.997963,-0.039040,0.004932,0.031700,-7.286643,13.093344,-52.484180,,,,,,,
1508437074.130924,0.026996,-0.060395,-0.750777,-0.072680,0.085944,-0.264320,0.026944,0.060358,-0.997813,0.010349,0.032476,0.011287,-7.230395,13.166346,-52.473698,,,,,,,
1508437074.150926,0.028459,-0.061928,-0.755581,-0.072563,0.085871,-0.228065,0.028400,0.061888,-0.997679,0.038754,0.069047,-0.003649,-7.212564,13.194257,-52.469139,,,,,,,
1508437074.170935,0.028189,-0.063408,-0.758605,-0.057765,-0.077363,-0.103085,0.028128,0.063366,-0.997594,0.072473,0.045902,-0.044749,-7.198158,13.241148,-52.459309,,,,,,,
1508437074.190940,0.026173,-0.063600,-0.759726,0.035581,-0.086046,-0.033719,0.026117,0.063557,-0.997636,0.027853,0.077647,-0.042082,-7.333713,13.276304,-52.431637,,,,,,,
1508437074.210946,0.025639,-0.060974,-0.760329,0.175479,0.001281,-0.040422,0.025588,0.060936,-0.997814,0.006715,0.078361,-0.027394,-7.385087,13.212238,-52.440609,,,,,,,
1508437074.230951,0.025860,-0.057714,-0.761912,0.138944,0.012017,-0.077871,0.025814,0.057682,-0.998001,0.029301,-0.007069,-0.005340,-7.392440,13.024137,-52.486607,,,,,,,
1508437074.250929,0.026067,-0.056420,-0.762945,0.032086,0.009826,-0.034041,0.026023,0.056390,-0.998070,0.030160,-0.046182,0.013435,-7.393832,12.872039,-52.523918,,,,,,,
1508437074.270963,0.025260,-0.055887,-0.763942,0.028928,-0.047623,-0.070526,0.025218,0.055858,-0.998120,0.043599,0.006504,0.022473,-7.393442,12.862350,-52.526348,,,,,,,
1508437074.290966,0.024675,-0.054981,-0.765380,0.054553,-0.009316,-0.052973,0.024635,0.054954,-0.998185,0.023186,-0.010490,0.024140,-7.474732,12.798641,-52.530403,,,,,,,
1508437074.310971,0.025068,-0.053659,-0.766185,0.069464,0.031129,-0.037576,0.025029,0.053633,-0.998247,0.042064,-0.017866,0.003252,-7.490137,12.765739,-52.536217,,,,,,,
1508437074.330976,0.025734,-0.052432,-0.767296,0.054313,0.055693,-0.067778,0.025696,0.052408,-0.998295,0.066803,0.002539,0.003788,-7.462922,12.632252,-52.572346,,,,,,,
1508437074.350983,0.027446,-0.051588,-0.769237,0.049731,0.111171,-0.110165,0.027406,0.051565,-0.998294,0.087950,0.020930,0.009387,-7.439631,12.600702,-52.583214,,,,,,,
1508437074.370983,0.029660,-0.050417,-0.771529,0.058327,0.115400,-0.095304,0.029618,0.050396,-0.998290,0.173720,-0.025432,0.009429,-7.311274,12.491431,-52.627270,,,,,,,
1508437074.390969,0.030823,-0.048978,-0.771238,0.085980,0.007446,0.084313,0.030781,0.048958,-0.998326,0.199627,-0.018013,0.004232,-7.242130,12.437750,-52.649540,,,,,,,
1508437074.410997,0.030580,-0.046867,-0.768335,0.117488,-0.038577,0.189454,0.030542,0.046850,-0.998435,0.237921,-0.002325,0.024665,-7.211648,12.360091,-52.672009,,,,,,,
1508437074.431001,0.030385,-0.044353,-0.763568,0.099333,0.018809,0.253656,0.030351,0.044338,-0.998555,0.285949,-0.036312,0.045110,-7.188602,12.241735,-52.702789,,,,,,,
1508437074.450997,0.031842,-0.043269,-0.757841,0.004178,0.077265,0.331786,0.031806,0.043255,-0.998558,0.359551,-0.059262,0.037117,-7.111829,12.205431,-52.721626,,,,,,,
1508437074.471012,0.032424,-0.043654,-0.748121,-0.030946,-0.070236,0.585599,0.032387,0.043640,-0.998522,0.392982,-0.072082,0.034213,-6.993170,12.236889,-52.730202,,,,,,,
1508437074.491017,0.029235,-0.042686,-0.734321,0.061978,-0.228180,0.718975,0.029205,0.042673,-0.998662,0.346986,-0.054499,-0.007838,-6.920120,12.380499,-52.706314,,,,,,,
1508437074.511002,0.027106,-0.041542,-0.720735,-0.011595,-0.030953,0.648993,0.027080,0.041530,-0.998770,0.284062,-0.099788,0.028479,-6.953366,12.403497,-52.696529,,,,,,,
1508437074.531029,0.029271,-0.044008,-0.708036,-0.210151,0.152349,0.632621,0.029238,0.043994,-0.998604,0.296110,-0.120670,0.013176,-2.282505,10.227861,-48.241486,,,,,,,
1508437074.551033,0.033496,-0.048791,-0.693066,-0.255428,0.113630,0.824085,0.033450,0.048772,-0.998250,0.221586,-0.091680,-0.082988,-1.903599,10.546190,-48.189358,,,,,,,
1508437074.571027,0.033562,-0.050938,-0.675411,-0.053509,-0.118680,0.843297,0.033512,0.050916,-0.998141,0.119076,0.025088,-0.149305,-1.729887,10.723138,-48.156845,,,,,,,
1508437074.591044,0.033679,-0.050086,-0.661983,0.012571,0.073517,0.606940,0.033630,0.050065,-0.998180,-0.066162,0.089630,-0.064336,-1.649248,10.782726,-48.146366,,,,,,,
1508437074.611048,0.039485,-0.051197,-0.648036,-0.109692,0.324656,0.750539,0.039423,0.051174,-0.997911,-0.154657,0.050693,-0.040617,-1.289387,10.846565,-48.143009,,,,,,,
1508437074.631051,0.046253,-0.051348,-0.633129,0.029537,0.256496,0.725832,0.046176,0.051326,-0.997614,-0.236468,0.154668,-0.043997,-0.931907,10.925987,-48.133297,,,,,,,
1508437074.651060,0.049715,-0.048843,-0.618600,0.097472,0.082841,0.728299,0.049636,0.048823,-0.997573,-0.305648,0.116139,-0.034836,-0.552603,10.895706,-48.146004,,,,,,,
1508437074.671063,0.053439,-0.047150,-0.604869,0.029571,0.171411,0.658822,0.053354,0.047133,-0.997463,-0.339106,0.134554,-0.005803,-0.428472,10.851057,-48.157356,,,,,,,
1508437074.691069,0.057642,-0.045910,-0.593709,0.039640,0.206886,0.496223,0.057550,0.045894,-0.997287,-0.367639,0.188451,0.006580,0.013342,10.794792,-48.171902,,,,,,,
1508437074.711075,0.060776,-0.043412,-0.585167,0.133840,0.096258,0.406054,0.060682,0.043399,-0.997213,-0.321348,0.135419,0.033071,0.295845,10.740338,-48.183167,,,,,,,
1508437074.731060,0.062904,-0.040242,-0.577284,0.114583,0.100514,0.411339,0.062811,0.040231,-0.997214,-0.290839,0.053000,0.094214,0.518584,10.575095,-48.217823,,,,,,,
1508437074.751085,0.065813,-0.038816,-0.569370,0.003132,0.118719,0.377036,0.065716,0.038806,-0.997083,-0.275418,0.046780,0.087080,0.670774,10.507926,-48.230625,,,,,,,
1508437074.771063,0.067777,-0.039490,-0.563332,-0.082827,0.087059,0.238941,0.067672,0.039480,-0.996926,-0.214538,0.046336,0.060647,-7.845020,11.279629,-51.031460,,,,,,,
1508437074.791074,0.069953,-0.041246,-0.560602,-0.094202,0.133199,0.073004,0.069836,0.041234,-0.996706,-0.172696,0.042491,0.034578,-7.675659,11.429701,-51.023819,,,,,,,
1508437074.811100,0.072257,-0.042173,-0.559954,-0.017196,0.088545,0.020278,0.072130,0.042161,-0.996504,-0.115648,0.040557,0.001448,-7.566419,11.495033,-51.025459,,,,,,,
1508437074.831106,0.072829,-0.041703,-0.558937,0.030364,-0.021281,0.067686,0.072701,0.041691,-0.996482,-0.091408,0.012935,-0.005380,-11.371222,12.151779,-55.334503,,,,,,,
1508437074.851110,0.072494,-0.041828,-0.559005,-0.036484,0.009882,-0.059605,0.072367,0.041816,-0.996501,-0.089915,0.024727,0.013011,-11.384276,12.142440,-55.333870,,,,,,,
1508437074.871115,0.074565,-0.043544,-0.561093,-0.094910,0.154900,-0.125643,0.074426,0.043530,-0.996276,-0.081689,-0.000714,0.013213,-11.327684,12.191145,-55.334774,,,,,,,
1508437074.891121,0.077082,-0.045365,-0.564152,-0.054276,0.109186,-0.176193,0.076926,0.045350,-0.996005,-0.023689,0.037582,-0.008802,-11.228075,12.245864,-55.342995,,,,,,,
1508437074.911125,0.078403,-0.045839,-0.566799,-0.000292,0.040826,-0.089938,0.078241,0.045823,-0.995881,-0.029657,0.031295,-0.012847,-11.143381,12.252115,-55.358727,,,,,,,
1508437074.931130,0.077725,-0.045705,-0.568360,0.017056,-0.048635,-0.101449,0.077566,0.045689,-0.995940,-0.028616,0.030743,-0.014131,-11.152191,12.234615,-55.360821,,,,,,,
1508437074.951137,0.077703,-0.045701,-0.571394,-0.004866,0.054831,-0.167977,0.077544,0.045685,-0.995942,-0.076399,0.005081,0.003205,-11.221632,12.189236,-55.356800,,,,,,,
1508437074.971141,0.079129,-0.046863,-0.574539,-0.059400,0.058010,-0.153054,0.078960,0.046845,-0.995777,-0.050075,-0.000459,-0.009701,-11.179440,12.175190,-55.368423,,,,,,,
1508437074.991133,0.077800,-0.047939,-0.577586,-0.023614,-0.118798,-0.167578,0.077633,0.047921,-0.995830,-0.065410,0.040565,-0.042577,-11.198545,12.195658,-55.360058,,,,,,,
1508437075.011152,0.075572,-0.047940,-0.580931,0.027633,-0.073017,-0.161883,0.075413,0.047922,-0.996000,-0.157689,0.046194,-0.036989,-11.364313,12.174686,-55.330887,,,,,,,
1508437075.031157,0.073995,-0.047419,-0.584378,0.052283,-0.096440,-0.171158,0.073844,0.047401,-0.996143,-0.166404,0.073433,-0.056821,-11.513462,12.084714,-55.319775,,,,,,,
1508437075.051162,0.070060,-0.045501,-0.587944,0.152189,-0.238124,-0.179841,0.069931,0.045485,-0.996514,-0.214538,0.088960,-0.063376,-11.550483,12.060375,-55.317368,,,,,,,
1508437075.071168,0.064894,-0.041735,-0.593074,0.219193,-0.228319,-0.297327,0.064792,0.041723,-0.997026,-0.312778,0.085718,-0.017836,-11.966929,11.769247,-55.291546,,,,,,,
1508437075.091153,0.061255,-0.038405,-0.601712,0.163650,-0.118189,-0.496148,0.061171,0.038395,-0.997389,-0.341857,0.056301,0.021558,-12.347812,11.374516,-55.290413,,,,,,,
1508437075.111154,0.058416,-0.037104,-0.613880,0.066839,-0.131677,-0.664356,0.058343,0.037095,-0.997607,-0.311181,0.051253,0.029101,-12.408634,11.298536,-55.292377,,,,,,,
1508437075.131180,0.054983,-0.037223,-0.628737,0.028014,-0.153810,-0.778100,0.054918,0.037214,-0.997797,-0.300309,0.069445,0.028940,-12.830053,10.919495,-55.272343,,,,,,,
1508437075.151188,0.051367,-0.037372,-0.646422,0.047746,-0.138560,-0.948944,0.051309,0.037363,-0.997984,-0.253839,0.082678,0.033537,-13.259247,10.605093,-55.232258,,,,,,,
1508437075.171182,0.048189,-0.036993,-0.665945,0.077588,-0.120417,-0.969489,0.048137,0.036984,-0.998156,-0.136181,0.066791,0.046404,-13.519251,10.364425,-55.214909,,,,,,,
1508437075.191200,0.043870,-0.036287,-0.685183,0.072704,-0.250425,-0.944142,0.043827,0.036279,-0.998380,0.006755,0.040137,0.049451,-13.859504,10.012513,-55.195484,,,,,,,
1508437075.211203,0.035634,-0.035785,-0.703095,0.056453,-0.450857,-0.858051,0.035603,0.035778,-0.998725,0.065746,-0.000438,0.040122,-14.502330,9.591798,-55.104965,,,,,,,
1508437075.231210,0.025494,-0.034733,-0.719302,0.100544,-0.449939,-0.789854,0.025476,0.034726,-0.999072,0.129400,0.033924,0.076282,-15.016652,9.356222,-55.007629,,,,,,,
1508437075.251215,0.016887,-0.032226,-0.735483,0.154920,-0.408362,-0.812890,0.016878,0.032220,-0.999338,0.312239,-0.038247,0.070887,-15.641377,8.990389,-54.894428,,,,,,,
1508437075.271218,0.006518,-0.030749,-0.750149,0.022075,-0.540739,-0.651992,0.006515,0.030744,-0.999506,0.386216,-0.113355,0.052301,-16.425592,8.509099,-54.741875,,,,,,,
1508437075.291218,-0.004965,-0.032161,-0.760880,-0.115448,-0.543149,-0.495108,-0.004963,0.032156,-0.999471,0.402027,-0.025884,0.015920,-16.956144,8.374308,-54.600712,,,,,,,
1508437075.311230,-0.015570,-0.034861,-0.770369,-0.148591,-0.511259,-0.457158,-0.015560,0.034854,-0.999271,0.438976,-0.036304,-0.013455,-17.621685,8.333578,-54.395821,,,,,,,
1508437075.331234,-0.025577,-0.038764,-0.778209,-0.232907,-0.453954,-0.337434,-0.025555,0.038754,-0.998922,0.394406,-0.029462,-0.048960,-18.392744,8.376529,-54.133339,,,,,,,
1508437075.351235,-0.032814,-0.044098,-0.784446,-0.280418,-0.272918,-0.304836,-0.032777,0.044083,-0.998490,0.332017,0.049667,-0.065490,-18.770422,8.496285,-53.984833,,,,,,,
1508437075.371246,-0.035671,-0.048638,-0.790312,-0.201692,-0.055743,-0.248332,-0.035621,0.048619,-0.998182,0.312156,0.057430,-0.066973,-19.083344,8.673537,-53.846756,,,,,,,
1508437075.391249,-0.037140,-0.051290,-0.792701,-0.102394,-0.106267,-0.031214,-0.037082,0.051268,-0.997996,0.273655,0.021181,-0.078908,-19.209545,8.817598,-53.778446,,,,,,,
1508437075.411233,-0.040339,-0.052237,-0.791648,-0.013002,-0.167253,0.091161,-0.040273,0.052213,-0.997824,0.127920,0.020296,-0.037394,-19.318653,8.883531,-53.728485,,,,,,,
1508437075.431231,-0.041105,-0.051872,-0.789981,0.036560,0.041579,0.057149,-0.041038,0.051849,-0.997811,0.039176,0.024003,-0.019462,-25.279442,8.372263,-57.500462,,,,,,,
1508437075.451265,-0.037837,-0.051682,-0.790123,-0.020971,0.219667,-0.032827,-0.037778,0.051659,-0.997950,0.038586,-0.021218,-0.012212,-25.140078,8.354090,-57.564171,,,,,,,
1508437075.471261,-0.033684,-0.052795,-0.790775,-0.065847,0.195181,-0.034571,-0.033631,0.052771,-0.998040,0.016617,0.001993,0.007287,-25.078184,8.356008,-57.590885,,,,,,,
1508437075.491278,-0.029495,-0.053787,-0.791456,-0.033790,0.224973,-0.021165,-0.029448,0.053761,-0.998119,0.000182,-0.008580,0.017239,-24.728146,8.432736,-57.730888,,,,,,,
1508437075.511274,-0.024989,-0.054453,-0.791145,-0.039906,0.193952,0.044334,-0.024950,0.054426,-0.998206,0.025240,-0.031294,-0.001123,-24.399120,8.477790,-57.864136,,,,,,,
1508437075.531286,-0.023230,-0.055166,-0.788868,-0.021934,0.027549,0.155496,-0.023192,0.055138,-0.998209,0.015426,-0.028634,-0.003225,-24.263742,8.537920,-57.912201,,,,,,,
1508437075.551292,-0.023056,-0.055258,-0.785751,0.004808,0.004156,0.131291,-0.023018,0.055230,-0.998208,-0.072700,0.003730,0.007608,-24.210638,8.633154,-57.920303,,,,,,,
1508437075.571296,-0.021918,-0.055751,-0.784368,-0.048149,0.078923,0.037478,-0.021882,0.055722,-0.998206,-0.062895,-0.025266,-0.012505,-24.150833,8.706923,-57.934227,,,,,,,
1508437075.591302,-0.019525,-0.057452,-0.784422,-0.094514,0.138696,-0.016669,-0.019492,0.057421,-0.998160,-0.055932,-0.013140,-0.048181,-24.027107,8.798177,-57.971878,,,,,,,
1508437075.611308,-0.016279,-0.058832,-0.785024,-0.053990,0.167480,-0.033112,-0.016250,0.058798,-0.998138,-0.051041,0.007898,-0.056474,-23.944040,8.845873,-57.998978,,,,,,,
1508437075.631311,-0.013937,-0.059891,-0.785047,-0.060988,0.074671,0.034350,-0.013912,0.059855,-0.998110,0.013515,-0.016840,-0.066358,-23.689590,8.929991,-58.090504,,,,,,,
1508437075.651317,-0.018624,-0.063486,-0.783530,-0.032660,-0.017107,0.109235,-0.018586,0.063443,-0.997812,-0.020629,0.015842,-0.100836,-23.640192,9.033314,-58.094650,,,,,,,
1508437075.671323,-0.018492,-0.063041,-0.781332,0.053906,0.015901,0.105492,-0.018454,0.062999,-0.997843,-0.035867,0.018559,-0.122900,-23.928064,9.213254,-57.948353,,,,,,,
1508437075.691327,-0.017407,-0.062391,-0.779743,0.010819,0.057555,0.055871,-0.017372,0.062350,-0.997903,-0.041633,-0.048739,-0.225211,-23.857367,9.215191,-57.977188,,,,,,,
1508437075.711312,-0.015494,-0.064072,-0.779970,-0.151363,0.136651,-0.058183,-0.015462,0.064028,-0.997828,-0.044383,-0.058612,-0.264928,-23.794895,9.246979,-57.997795,,,,,,,
1508437075.731338,-0.011492,-0.068511,-0.782987,-0.252835,0.275450,-0.205136,-0.011464,0.068457,-0.997588,-0.046275,-0.037329,-0.432084,-23.638918,9.403372,-58.036423,,,,,,,
1508437075.751342,-0.002934,-0.073265,-0.788290,-0.232466,0.549348,-0.274168,-0.002926,0.073200,-0.997313,-0.001347,0.023633,-0.746736,-23.189541,9.622394,-58.181637,,,,,,,
1508437075.771349,0.008323,-0.079024,-0.795003,-0.357043,0.578364,-0.386457,0.008297,0.078942,-0.996845,0.045033,0.009117,-0.847378,-22.731230,9.734297,-58.343658,,,,,,,
1508437075.791354,0.016887,-0.092361,-0.803498,-0.847721,0.361279,-0.436256,0.016814,0.092230,-0.995596,0.108674,-0.067282,-0.999888,-22.157597,10.055820,-58.509567,,,,,,,
1508437075.811350,0.020921,-0.109536,-0.809965,-0.739605,0.162796,-0.274580,0.020794,0.109317,-0.993789,0.019184,0.244397,-1.088623,-21.797379,11.085886,-58.458748,,,,,,,
1508437075.831365,0.028778,-0.116455,-0.814411,-0.017446,0.676928,-0.177014,0.028579,0.116192,-0.992815,-0.150039,0.354130,-0.993879,-21.516510,11.585343,-58.465950,,,,,,,
1508437075.851355,0.054197,-0.098783,-0.813704,1.483702,1.570471,0.262080,0.053907,0.098622,-0.993664,-0.197492,0.461330,-0.917393,-21.066526,11.474157,-58.651455,,,,,,,
1508437075.871368,0.082701,-0.051127,-0.807917,2.769778,1.147850,0.495432,0.082499,0.051104,-0.995280,0.182699,0.349927,-0.504216,-18.425533,8.703700,-60.001614,,,,,,,
1508437075.891379,0.095582,0.013221,-0.800983,3.423716,0.343904,0.794502,0.095428,-0.013220,-0.995349,0.030549,0.182944,0.048297,-17.344509,5.222198,-60.723511,,,,,,,
1508437075.911372,0.097955,0.087292,-0.789324,3.704081,0.133701,0.935959,0.097427,-0.087181,-0.991417,-0.060836,0.266106,0.342201,-17.129818,3.298051,-60.919128,,,,,,,
1508437075.931373,0.103050,0.163426,-0.780659,3.743269,0.427005,0.748272,0.101497,-0.162699,-0.981441,-0.203228,0.206278,0.887875,-16.760130,-3.029695,-61.035786,,,,,,,
1508437075.951394,0.111815,0.236980,-0.774109,3.539593,0.464495,0.670041,0.108464,-0.234769,-0.965981,-0.139378,0.244397,1.036095,-16.233971,-7.265162,-60.820423,,,,,,,
1508437075.971380,0.118413,0.303169,-0.771271,3.063180,0.304202,0.450933,0.112749,-0.298547,-0.947712,-0.094301,0.294549,1.082081,-16.017258,-9.287824,-60.602242,,,,,,,
1508437075.991405,0.121980,0.357098,-0.768661,2.400009,0.203191,0.441166,0.114002,-0.349557,-0.929954,-0.038806,0.232461,1.101356,-6.192608,-10.986397,-50.170773,,,,,,,
1508437076.011410,0.125219,0.395680,-0.765941,1.616094,0.249497,0.288601,0.115242,-0.385436,-0.915510,-0.064888,0.206557,0.958326,-6.089108,-13.029465,-49.692169,,,,,,,
1508437076.031407,0.131899,0.419934,-0.764972,0.943311,0.385187,0.169845,0.120090,-0.407700,-0.905185,-0.099369,0.169404,0.826480,-5.987014,-13.773430,-49.503578,,,,,,,
1508437076.051415,0.139506,0.432292,-0.764855,0.438897,0.368556,0.026514,0.126262,-0.418953,-0.899187,-0.076152,0.134819,0.487108,-5.491059,-15.067158,-49.183178,,,,,,,
1508437076.071426,0.146776,0.437483,-0.767815,0.215950,0.279525,-0.170360,0.132476,-0.423661,-0.896081,-0.030440,0.107911,0.374948,-5.158938,-15.398287,-49.116535,,,,,,,
1508437076.091433,0.154412,0.441063,-0.771996,0.218266,0.293239,-0.103383,0.139080,-0.426901,-0.893539,-0.038540,0.074774,0.321563,-4.992396,-15.509918,-49.098618,,,,,,,
1508437076.111436,0.158790,0.444695,-0.773575,0.140848,0.112070,-0.053781,0.142745,-0.430183,-0.891385,0.014085,0.052268,0.212155,-4.576585,-15.828087,-49.037563,,,,,,,
1508437076.131433,0.161776,0.444223,-0.775988,-0.093730,0.114399,-0.124014,0.145438,-0.429757,-0.891155,0.013726,0.025353,0.204921,-4.451913,-15.888288,-49.029572,,,,,,,
1508437076.151447,0.166204,0.439589,-0.777525,-0.278102,0.250746,-0.099196,0.149711,-0.425568,-0.892457,0.030145,0.007523,0.210648,-4.371535,-15.834198,-49.054295,,,,,,,
1508437076.171429,0.172000,0.433564,-0.777846,-0.280032,0.247427,-0.037301,0.155317,-0.420108,-0.894084,0.052065,0.020099,0.176066,-3.960586,-15.447725,-49.212170,,,,,,,
1508437076.191457,0.174249,0.428297,-0.776865,-0.265422,0.067296,0.014351,0.157709,-0.415322,-0.895899,0.053336,0.024133,0.148203,-3.780846,-15.182087,-49.308876,,,,,,,
1508437076.211462,0.173054,0.422747,-0.775679,-0.304728,-0.059403,-0.012573,0.157033,-0.410267,-0.898344,0.032847,0.030491,0.161039,-3.763620,-15.049776,-49.350739,,,,,,,
1508437076.231467,0.172936,0.414919,-0.774887,-0.441050,0.068488,-0.027121,0.157474,-0.403115,-0.901499,0.008053,0.031961,0.191904,-3.801262,-14.560304,-49.494484,,,,,,,
1508437076.251468,0.174291,0.405254,-0.772820,-0.506265,0.106747,0.025688,0.159364,-0.394252,-0.905079,0.013228,0.037120,0.171391,-3.730326,-14.214147,-49.600388,,,,,,,
1508437076.271479,0.174577,0.395397,-0.770860,-0.499749,0.035445,-0.009537,0.160290,-0.385175,-0.908817,-0.004467,0.040082,0.156619,-3.645329,-13.712083,-49.747829,,,,,,,
1508437076.291483,0.175081,0.385818,-0.769230,-0.467755,0.072719,-0.009035,0.161383,-0.376317,-0.912327,-0.041831,0.043630,0.201985,-3.586000,-13.097395,-49.917480,,,,,,,
1508437076.311488,0.176292,0.376564,-0.767930,-0.470083,0.097291,-0.044578,0.163092,-0.367727,-0.915521,-0.038855,0.099310,0.226113,-3.504184,-12.632904,-50.042847,,,,,,,
1508437076.331494,0.179761,0.366971,-0.768232,-0.468455,0.198619,-0.110026,0.166890,-0.358789,-0.918378,-0.036626,0.105570,0.257276,-3.394616,-12.283422,-50.137314,,,,,,,
1508437076.351498,0.182812,0.358446,-0.768365,-0.368557,0.107978,-0.074665,0.170241,-0.350820,-0.920839,-0.028425,0.125692,0.333009,-3.145250,-11.728399,-50.286263,,,,,,,
1508437076.371504,0.184073,0.352954,-0.768860,-0.207769,0.032273,-0.057693,0.171752,-0.345671,-0.922503,-0.077483,0.126311,0.429309,-3.053555,-11.425200,-50.361656,,,,,,,
1508437076.391509,0.184415,0.350138,-0.768280,-0.122934,0.029940,0.032912,0.172246,-0.343027,-0.923398,-0.091527,0.142100,0.494199,-3.025777,-11.293220,-50.393093,,,,,,,
1508437076.411514,0.184015,0.347455,-0.766899,-0.187042,-0.003065,0.032373,0.172044,-0.340506,-0.924368,-0.085923,0.161078,0.547659,-0.466222,-13.622878,-51.110912,,,,,,,
1508437076.431519,0.183514,0.341899,-0.765471,-0.344459,0.000228,0.000431,0.171923,-0.335277,-0.926300,-0.070254,0.180431,0.582214,-0.474277,-13.370999,-51.177307,,,,,,,
1508437076.451525,0.182216,0.333176,-0.765584,-0.505026,-0.135798,-0.141427,0.171244,-0.327046,-0.929363,-0.050028,0.208699,0.592175,-0.476204,-13.188583,-51.224602,,,,,,,
1508437076.471529,0.175019,0.318333,-0.765274,-0.886683,-0.504481,-0.037694,0.165379,-0.312984,-0.935249,-0.033756,0.014217,0.556236,-0.728574,-12.321201,-51.437168,,,,,,,
1508437076.491537,0.155290,0.294088,-0.754564,-1.580046,-1.001801,0.510653,0.148026,-0.289867,-0.945550,-0.089936,-0.058323,0.397104,-1.490370,-11.176654,-51.681587,,,,,,,
1508437076.511541,0.126966,0.250634,-0.736071,-2.694197,-1.285946,0.514544,0.122669,-0.248018,-0.960958,-0.086414,-0.078154,0.260884,-2.083669,-10.280766,-51.846786,,,,,,,
1508437076.531543,0.099353,0.186386,-0.724926,-3.574878,-1.172750,-0.049444,0.097472,-0.185309,-0.977834,-0.199492,0.084097,-0.241633,-4.136231,-5.888291,-52.405582,,,,,,,
1508437076.551550,0.084084,0.104659,-0.726547,-4.272372,-0.441697,-0.647055,0.083525,-0.104468,-0.991015,-0.207716,0.076743,-0.487821,-4.947317,-2.919105,-52.584484,,,,,,,
1508437076.571556,0.085773,0.022488,-0.736744,-3.730973,0.299165,-0.978096,0.085646,-0.022486,-0.996072,-0.093489,0.365290,-0.973090,-5.295230,1.463964,-52.611240,,,,,,,
1508437076.591550,0.094416,-0.034261,-0.752585,-2.100444,0.392477,-0.967877,0.094220,0.034255,-0.994962,0.299091,0.412309,-1.359790,-4.917248,5.706590,-52.358200,,,,,,,
1508437076.611566,0.094154,-0.055944,-0.760997,-0.439639,-0.276240,-0.234340,0.093868,0.055915,-0.994013,0.384342,0.227532,-1.122289,-4.826971,7.159290,-52.187836,,,,,,,
1508437076.631559,0.081864,-0.053563,-0.758983,0.297390,-0.726961,0.270673,0.081655,0.053537,-0.995222,0.324336,0.115652,-0.943575,-5.029801,7.302814,-52.148777,,,,,,,
1508437076.651576,0.070039,-0.048211,-0.750855,0.111156,-0.485519,0.477372,0.069900,0.048193,-0.996389,0.115372,-0.126165,-0.544535,-6.005833,6.983526,-52.089207,,,,,,,
1508437076.671581,0.064069,-0.047882,-0.741345,0.001439,-0.305443,0.465246,0.063952,0.047864,-0.996804,0.009458,-0.001844,-0.426139,-6.320505,7.030050,-52.045700,,,,,,,
1508437076.691578,0.058236,-0.043188,-0.735340,0.345071,-0.273060,0.208606,0.058149,0.043175,-0.997374,-0.027784,0.026604,-0.316103,-6.453290,7.037560,-52.028385,,,,,,,
1508437076.711579,0.054766,-0.034892,-0.733101,0.388152,-0.101393,0.120780,0.054705,0.034885,-0.997893,-0.097750,-0.186161,-0.030565,-6.802427,6.551330,-52.047401,,,,,,,
1508437076.731585,0.054610,-0.030401,-0.731606,0.088957,0.033056,0.043348,0.054558,0.030397,-0.998048,-0.092552,-0.171556,0.045182,-6.834482,6.258711,-52.079208,,,,,,,
1508437076.751585,0.056572,-0.032426,-0.732046,-0.181361,0.137735,-0.065664,0.056512,0.032420,-0.997875,-0.088571,-0.126552,0.055813,-6.808354,6.237927,-52.085117,,,,,,,
1508437076.771587,0.060680,-0.036306,-0.734948,-0.144702,0.247733,-0.210171,0.060603,0.036298,-0.997502,-0.028590,0.054660,0.023686,-6.583702,6.478693,-52.084610,,,,,,,
1508437076.791612,0.064529,-0.037606,-0.739376,0.000093,0.141160,-0.203403,0.064439,0.037597,-0.997213,0.049972,-0.005020,-0.016703,-6.376405,6.540233,-52.102707,,,,,,,
1508437076.811590,0.064935,-0.037198,-0.741974,0.037327,-0.025248,-0.092255,0.064844,0.037190,-0.997202,0.050253,0.002331,-0.014288,-6.327837,6.524051,-52.110657,,,,,,,
1508437076.831615,0.065039,-0.037038,-0.743347,-0.007673,0.035407,-0.054714,0.064948,0.037030,-0.997201,0.030022,0.038364,0.004815,-6.344937,6.465662,-52.115852,,,,,,,
1508437076.851628,0.065756,-0.037519,-0.744098,-0.024746,0.033255,-0.041874,0.065662,0.037510,-0.997137,0.051571,0.060710,-0.004557,-6.311003,6.478325,-52.118401,,,,,,,
1508437076.871610,0.066302,-0.037395,-0.745015,0.039515,0.017254,-0.038491,0.066207,0.037386,-0.997105,0.034074,0.059248,-0.012340,-6.296030,6.485881,-52.119270,,,,,,,
1508437076.891613,0.066008,-0.035771,-0.745700,0.100756,-0.046711,-0.020549,0.065918,0.035763,-0.997184,0.033462,0.002994,0.006049,-6.284173,6.404614,-52.130756,,,,,,,
1508437076.911643,0.064727,-0.034101,-0.745848,0.061250,-0.045691,0.007190,0.064644,0.034095,-0.997326,0.011787,-0.011970,0.038051,-6.352103,6.305847,-52.134560,,,,,,,
1508437076.931648,0.065823,-0.033939,-0.745646,-0.006596,0.106643,0.012496,0.065738,0.033932,-0.997260,0.023175,-0.008008,0.039633,-6.365951,6.281446,-52.135815,,,,,,,
1508437076.951653,0.066735,-0.033128,-0.745705,0.086784,-0.027531,-0.021883,0.066649,0.033122,-0.997227,0.098665,0.041112,0.027210,-6.250173,6.264566,-52.151852,,,,,,,
1508437076.971637,0.065646,-0.030878,-0.746366,0.107220,-0.036107,0.002751,0.065567,0.030873,-0.997370,0.084060,0.004222,0.043421,-6.292321,6.178136,-52.157097,,,,,,,
1508437076.991644,0.096606,-0.023442,-0.743734,-0.011266,0.023379,0.140593,0.096429,0.023440,-0.995064,0.104544,-0.023654,0.047218,-4.703836,5.756635,-52.372322,,,,,,,
1508437077.011651,0.095927,-0.024475,-0.740655,-0.093433,-0.063931,0.131258,0.095751,0.024472,-0.995104,0.202192,0.025592,0.043231,-4.692439,5.815793,-52.366810,,,,,,,
1508437077.031674,0.095768,-0.026704,-0.736808,-0.139243,0.013577,0.264523,0.095588,0.026701,-0.995063,0.202523,-0.013716,0.038245,-4.715617,5.912382,-52.353909,,,,,,,
1508437077.051679,0.094466,-0.028092,-0.728560,-0.078345,-0.131647,0.432926,0.094288,0.028088,-0.995149,0.282207,-0.025723,-0.022933,-4.693250,6.080641,-52.336647,,,,,,,
1508437077.071683,0.092673,-0.028560,-0.719929,-0.058223,-0.040079,0.451843,0.092503,0.028556,-0.995303,0.256786,-0.084098,-0.008497,-4.785568,6.228287,-52.310921,,,,,,,
1508437077.091690,0.095176,-0.029145,-0.709021,-0.107702,0.180193,0.573443,0.094992,0.029141,-0.995051,0.282830,-0.079952,-0.007451,-4.720025,6.312320,-52.306801,,,,,,,
1508437077.111695,0.098944,-0.030982,-0.696850,-0.163072,0.137507,0.618888,0.098735,0.030977,-0.994631,0.368230,-0.072206,-0.032636,-4.464061,6.487928,-52.307781,,,,,,,
1508437077.131683,0.100631,-0.032527,-0.683520,-0.141270,0.075585,0.685880,0.100408,0.032522,-0.994415,0.385707,-0.062780,-0.038224,-4.232911,6.753943,-52.293324,,,,,,,
1508437077.151706,0.103418,-0.033097,-0.667150,-0.086279,0.141238,0.874688,0.103177,0.033091,-0.994112,0.381915,-0.032389,-0.050642,-4.087440,6.904329,-52.285259,,,,,,,
1508437077.171711,0.106231,-0.031907,-0.647653,-0.020086,0.038579,1.064863,0.105977,0.031902,-0.993857,0.344630,-0.036861,-0.070520,-3.818144,7.055120,-52.285488,,,,,,,
1508437077.191692,0.104355,-0.029531,-0.622739,-0.026025,-0.207995,1.319024,0.104120,0.029527,-0.994126,0.246298,0.014297,-0.033477,-3.661013,7.182305,-52.279408,,,,,,,
1508437077.211721,0.098515,-0.027559,-0.596398,-0.036262,-0.389039,1.297132,0.098319,0.027555,-0.994773,0.084466,0.067782,-0.022744,-3.766088,7.314837,-52.253567,,,,,,,
1508437077.231727,0.089221,-0.026252,-0.572851,-0.055943,-0.461080,1.101992,0.089072,0.026249,-0.995679,-0.153205,0.012615,0.057371,-3.987648,7.416928,-52.222725,,,,,,,
1508437077.251731,0.087381,-0.025389,-0.551443,-0.049159,0.104622,1.069258,0.087241,0.025386,-0.995864,-0.356483,0.096943,0.007216,-4.195018,7.597499,-52.180504,,,,,,,
1508437077.271735,0.093210,-0.023014,-0.532439,0.105719,0.296808,0.827503,0.093050,0.023012,-0.995395,-0.314028,0.208342,-0.019757,-3.809565,7.685488,-52.197178,,,,,,,
1508437077.291742,0.097316,-0.017055,-0.519910,0.277808,0.133135,0.619687,0.097148,0.017054,-0.995124,-0.350886,0.170171,0.019309,-3.606044,7.640964,-52.218170,,,,,,,
1508437077.311746,0.097492,-0.011147,-0.506484,0.152459,-0.073678,0.714482,0.097332,0.011146,-0.995190,-0.443920,0.063317,0.066570,-3.304897,7.307712,-52.285759,,,,,,,
1508437077.331751,0.097010,-0.011106,-0.495473,-0.177404,0.059086,0.417438,0.096852,0.011106,-0.995237,-0.524907,0.110751,0.061796,-3.280188,7.316093,-52.286140,,,,,,,
1508437077.351758,0.101869,-0.016148,-0.489534,-0.293284,0.301335,0.211415,0.101680,0.016147,-0.994686,-0.523677,0.137707,0.017956,-3.198658,7.437859,-52.274006,,,,,,,
1508437077.371762,0.107674,-0.020126,-0.485867,-0.161675,0.237510,0.150396,0.107444,0.020124,-0.994007,-0.351249,0.182528,-0.041134,-6.527235,9.039810,-50.871101,,,,,,,
1508437077.391742,0.109158,-0.021129,-0.482033,-0.027075,-0.003348,0.191109,0.108917,0.021127,-0.993826,-0.296981,0.133002,-0.008066,-6.362621,9.168422,-50.868942,,,,,,,
1508437077.411774,0.108472,-0.020779,-0.478537,0.008366,-0.070424,0.169663,0.108236,0.020777,-0.993908,-0.275426,0.092519,-0.008625,-7.178817,10.124283,-54.676510,,,,,,,
1508437077.431776,0.107564,-0.020470,-0.476299,-0.004900,-0.039335,0.068966,0.107334,0.020469,-0.994012,-0.196629,0.079110,0.037164,-7.213602,10.149935,-54.667171,,,,,,,
1508437077.451782,0.107991,-0.021113,-0.476232,-0.046190,0.067391,-0.027452,0.107757,0.021112,-0.993953,-0.183639,0.060141,0.050350,-7.223856,10.167463,-54.662560,,,,,,,
1508437077.471789,0.109942,-0.022783,-0.477486,-0.104381,0.113378,-0.111247,0.109692,0.022781,-0.993704,-0.129559,0.032029,0.041876,-7.152502,10.217751,-54.662571,,,,,,,
1508437077.491792,0.113149,-0.025826,-0.480403,-0.144368,0.181682,-0.170854,0.112870,0.025823,-0.993274,-0.059785,0.046321,0.005542,-6.999137,10.353433,-54.656887,,,,,,,
1508437077.511799,0.116094,-0.028093,-0.483421,-0.057443,0.114519,-0.155017,0.115788,0.028089,-0.992877,-0.044697,0.063830,-0.011854,-6.881697,10.441383,-54.655067,,,,,,,
1508437077.531804,0.116349,-0.028302,-0.486246,0.039328,-0.029337,-0.142340,0.116040,0.028298,-0.992841,-0.049543,0.046196,-0.016192,-6.813831,10.468945,-54.658302,,,,,,,
1508437077.551800,0.116169,-0.028543,-0.490039,-0.039273,0.046476,-0.223353,0.115860,0.028540,-0.992855,-0.069992,-0.024954,0.015301,-6.882756,10.402863,-54.662285,,,,,,,
1508437077.571814,0.118384,-0.031369,-0.494323,-0.142203,0.113615,-0.225316,0.118049,0.031364,-0.992512,-0.035194,0.018029,-0.048824,-6.820761,10.469325,-54.657364,,,,,,,
1508437077.591809,0.119165,-0.033814,-0.498867,-0.040316,0.017750,-0.241063,0.118815,0.033808,-0.992341,-0.059856,0.047415,-0.065261,-6.791644,10.529762,-54.649380,,,,,,,
1508437077.611824,0.119335,-0.033174,-0.503052,0.100019,0.021872,-0.188979,0.118986,0.033168,-0.992342,-0.139738,0.072133,-0.079390,-6.823315,10.515235,-54.648232,,,,,,,
1508437077.631830,0.118644,-0.031591,-0.507666,0.095824,-0.066433,-0.243143,0.118307,0.031585,-0.992475,-0.176168,0.084107,-0.067996,-6.871796,10.370033,-54.669903,,,,,,,
1508437077.651834,0.117711,-0.030565,-0.513316,0.077296,0.000767,-0.285690,0.117385,0.030560,-0.992616,-0.252577,0.116931,-0.038283,-6.964378,10.269121,-54.677235,,,,,,,
1508437077.671839,0.118309,-0.029137,-0.519121,0.132848,0.038024,-0.279874,0.117983,0.029133,-0.992588,-0.271196,0.153271,-0.036053,-7.011109,10.097241,-54.703262,,,,,,,
1508437077.691844,0.117685,-0.026537,-0.525419,0.182317,-0.071659,-0.303912,0.117372,0.026534,-0.992733,-0.322328,0.129671,-0.039051,-7.063845,9.887935,-54.734703,,,,,,,
1508437077.711851,0.114663,-0.023543,-0.533495,0.191622,-0.140576,-0.467130,0.114380,0.023541,-0.993158,-0.351273,0.139286,-0.024588,-7.145907,9.763039,-54.746475,,,,,,,
1508437077.731855,0.114297,-0.022120,-0.545953,0.092983,0.068633,-0.666289,0.114021,0.022118,-0.993232,-0.333946,0.095328,0.057670,-7.434540,9.362614,-54.777973,,,,,,,
1508437077.751845,0.114119,-0.023224,-0.559761,-0.000872,-0.076143,-0.702506,0.113841,0.023221,-0.993228,-0.304881,0.141055,0.050097,-7.514271,9.208555,-54.793201,,,,,,,
1508437077.771866,0.110057,-0.024023,-0.574233,0.086218,-0.257181,-0.739399,0.109803,0.024020,-0.993663,-0.329133,0.155576,0.039760,-7.633784,9.153698,-54.785873,,,,,,,
1508437077.791870,0.104008,-0.022619,-0.591089,0.188366,-0.238775,-0.900754,0.103794,0.022617,-0.994342,-0.329334,0.110883,0.071276,-8.255098,8.804192,-54.753052,,,,,,,
1508437077.811868,0.101372,-0.021581,-0.611533,0.108212,-0.076537,-1.052329,0.101175,0.021579,-0.994635,-0.252740,0.085660,0.081686,-8.523992,8.531368,-54.755039,,,,,,,
1508437077.831882,0.095867,-0.023592,-0.631947,-0.053310,-0.385547,-0.985881,0.095694,0.023590,-0.995131,-0.003027,-0.016891,0.048033,-8.828675,8.257538,-54.748737,,,,,,,
1508437077.851885,0.084802,-0.025759,-0.650727,0.016860,-0.555007,-0.950421,0.084673,0.025756,-0.996076,0.055601,0.068268,0.039167,-9.641092,8.086896,-54.637062,,,,,,,
1508437077.871892,0.075146,-0.025243,-0.670719,0.144634,-0.398345,-1.002905,0.075052,0.025240,-0.996860,0.130332,0.039305,0.069400,-10.182590,7.895699,-54.566746,,,,,,,
1508437077.891898,0.065615,-0.024254,-0.689699,0.059820,-0.530659,-0.879364,0.065548,0.024251,-0.997555,0.344455,-0.075765,0.077022,-10.784122,7.534101,-54.502266,,,,,,,
1508437077.911902,0.052197,-0.027388,-0.704146,-0.218211,-0.692983,-0.640082,0.052154,0.027384,-0.998264,0.405290,-0.142802,0.035022,-11.728182,7.322662,-54.335857,,,,,,,
1508437077.931907,0.037160,-0.033443,-0.714887,-0.269064,-0.733689,-0.520028,0.037131,0.033437,-0.998751,0.398492,-0.027059,0.019289,-12.600509,7.469939,-54.120090,,,,,,,
1508437077.951902,0.023177,-0.038067,-0.724714,-0.200689,-0.657081,-0.483870,0.023158,0.038057,-0.999007,0.408482,-0.065935,-0.012712,-13.233232,7.567805,-53.955231,,,,,,,
1508437077.971886,0.009930,-0.042877,-0.732434,-0.264399,-0.647800,-0.322945,0.009920,0.042864,-0.999032,0.329298,-0.070254,-0.053016,-14.197991,7.706019,-53.689770,,,,,,,
1508437077.991903,-0.000665,-0.049362,-0.738776,-0.356244,-0.371835,-0.346072,-0.000664,0.049342,-0.998782,0.204170,0.022360,-0.051633,-14.731231,7.869972,-53.522064,,,,,,,
1508437078.011928,-0.004195,-0.056653,-0.746766,-0.353184,-0.045716,-0.425445,-0.004188,0.056623,-0.998387,0.193779,0.039706,-0.062801,-15.073470,8.076859,-53.395805,,,,,,,
1508437078.031932,-0.003209,-0.062201,-0.754929,-0.220707,0.094736,-0.362537,-0.003203,0.062161,-0.998061,0.193786,0.030369,-0.078538,-15.216215,8.418448,-53.302471,,,,,,,
1508437078.051939,-0.003101,-0.064995,-0.759823,-0.098802,-0.035625,-0.176267,-0.003094,0.064949,-0.997884,0.159894,0.001945,-0.075603,-15.208261,8.512346,-53.289825,,,,,,,
1508437078.071944,-0.004164,-0.066070,-0.762114,-0.034404,-0.019811,-0.101904,-0.004155,0.066022,-0.997809,0.057652,0.028597,-0.034814,-15.267113,8.542112,-53.268230,,,,,,,
1508437078.091947,-0.002534,-0.066592,-0.764934,-0.023294,0.148594,-0.152338,-0.002529,0.066543,-0.997780,0.057216,0.016084,0.007287,-15.253731,8.538940,-53.272575,,,,,,,
1508437078.111938,0.000067,-0.066983,-0.767286,-0.027237,0.099475,-0.092976,0.000067,0.066933,-0.997757,0.082437,0.000343,0.018586,-15.147454,8.521902,-53.305614,,,,,,,
1508437078.131959,0.000710,-0.068811,-0.768285,-0.131612,0.012009,-0.021254,0.000708,0.068757,-0.997633,0.061273,-0.055970,0.005705,-15.070623,8.542316,-53.324123,,,,,,,
1508437078.151963,0.001476,-0.071584,-0.768299,-0.123148,0.070548,0.002416,0.001472,0.071523,-0.997438,-0.028038,0.021052,-0.026488,-17.011162,10.889624,-61.424900,,,,,,,
1508437078.171945,0.003823,-0.072725,-0.768488,-0.015310,0.130212,-0.016657,0.003812,0.072661,-0.997349,-0.030500,0.027178,-0.029064,-16.925161,10.979400,-61.432674,,,,,,,
1508437078.191975,0.005574,-0.072022,-0.768648,0.050213,0.063054,-0.000804,0.005559,0.071960,-0.997392,-0.013189,-0.001037,-0.026213,-16.783119,10.978788,-61.471737,,,,,,,
1508437078.211979,0.006966,-0.071669,-0.768454,-0.004352,0.079012,0.016066,0.006948,0.071608,-0.997409,-0.036901,-0.003279,-0.010785,-16.678074,10.927586,-61.509441,,,,,,,
1508437078.231985,0.008507,-0.072253,-0.768270,-0.037520,0.066259,0.005613,0.008485,0.072190,-0.997355,-0.034379,0.009261,-0.007513,-16.601917,10.945870,-61.526791,,,,,,,
1508437078.251990,0.010035,-0.072310,-0.767973,0.023490,0.077930,0.021392,0.010009,0.072247,-0.997337,-0.049727,0.024554,-0.002938,-16.512436,10.983414,-61.544182,,,,,,,
1508437078.271984,0.011378,-0.071461,-0.767957,0.038414,0.058822,-0.013530,0.011349,0.071400,-0.997383,-0.040661,-0.025608,0.000557,-16.395458,10.938887,-61.583366,,,,,,,
1508437078.292001,0.012219,-0.071416,-0.768186,-0.020358,0.037520,-0.007845,0.012187,0.071356,-0.997376,-0.046871,-0.029440,-0.004622,-16.350681,10.912996,-61.599865,,,,,,,
1508437078.312007,0.012992,-0.072468,-0.769010,-0.062325,0.053625,-0.065628,0.012957,0.072405,-0.997291,-0.050143,0.005186,-0.019616,-16.308319,10.941681,-61.606010,,,,,,,
1508437078.332012,0.014166,-0.073318,-0.769804,-0.027869,0.040724,-0.011085,0.014127,0.073252,-0.997213,-0.008268,0.008764,-0.083567,-16.230526,11.000791,-61.616020,,,,,,,
1508437078.351998,0.013533,-0.073460,-0.768944,0.004885,-0.078774,0.081259,0.013497,0.073394,-0.997212,-0.016533,-0.012160,-0.157619,-16.219402,11.021240,-61.615299,,,,,,,
1508437078.372015,0.011225,-0.074169,-0.766639,-0.093281,-0.137403,0.114172,0.011194,0.074101,-0.997188,-0.041574,-0.055363,-0.322331,-16.308645,11.052729,-61.586094,,,,,,,
1508437078.391977,0.010456,-0.078366,-0.765426,-0.253609,0.041818,0.002930,0.010424,0.078285,-0.996876,-0.071536,0.027656,-0.537318,-16.432163,11.314436,-61.505684,,,,,,,
1508437078.411983,0.014700,-0.082737,-0.767952,-0.162958,0.295705,-0.189555,0.014650,0.082642,-0.996472,-0.005662,0.033492,-0.798054,-16.255180,11.582876,-61.502747,,,,,,,
1508437078.431988,0.019306,-0.083043,-0.772113,0.082416,0.180595,-0.190226,0.019238,0.082947,-0.996368,0.000049,-0.041840,-0.970566,-16.022903,11.629263,-61.554920,,,,,,,
1508437078.451990,0.020891,-0.079853,-0.774334,0.168829,0.036531,-0.071975,0.020823,0.079769,-0.996596,0.006216,-0.028057,-1.050478,-15.841593,11.389919,-61.646534,,,,,,,
1508437078.471999,0.023703,-0.078283,-0.775512,0.045313,0.247377,-0.021625,0.023628,0.078203,-0.996657,0.004036,0.072584,-0.954530,-15.743199,11.231434,-61.700794,,,,,,,
1508437078.491979,0.037295,-0.073058,-0.774752,0.448170,0.880939,0.054189,0.037187,0.072993,-0.996639,-0.075273,0.228094,-0.953480,-15.538160,11.189020,-61.760448,,,,,,,
1508437078.512008,0.056630,-0.057517,-0.776156,1.006066,0.979038,-0.064945,0.056506,0.057485,-0.996746,0.061536,0.271235,-0.855656,-13.921348,10.247080,-62.307102,,,,,,,
1508437078.531999,0.077082,-0.025403,-0.774704,1.985331,1.074796,0.402104,0.076981,0.025401,-0.996709,-0.073334,0.298070,-0.597224,-13.001171,9.097824,-62.683174,,,,,,,
1508437078.552020,0.094084,0.027593,-0.766569,2.894778,0.663947,0.655828,0.093909,-0.027589,-0.995198,-0.032493,0.373720,-0.433238,-11.651348,6.536258,-63.265358,,,,,,,
1508437078.572024,0.101714,0.088837,-0.760585,3.059452,0.290101,0.609943,0.101139,-0.088720,-0.990909,-0.088260,0.190878,0.203479,-10.705855,2.054076,-63.734974,,,,,,,
1508437078.592030,0.105618,0.148812,-0.753659,2.820043,0.207049,0.621990,0.104256,-0.148263,-0.983437,-0.126092,0.238824,0.523858,-10.375904,-1.645192,-63.801376,,,,,,,
1508437078.612036,0.111466,0.201198,-0.749822,2.469862,0.434444,0.415292,0.108991,-0.199844,-0.973747,-0.148390,0.248595,0.671242,-10.251499,-3.350140,-63.754723,,,,,,,
1508437078.632040,0.124336,0.251091,-0.746509,2.492604,0.768806,0.473338,0.120127,-0.248461,-0.961164,-0.218958,0.303499,0.846968,-9.364977,-7.978086,-63.479355,,,,,,,
1508437078.652029,0.137270,0.304196,-0.745436,2.713261,0.560206,0.352506,0.130556,-0.299527,-0.945113,-0.054217,0.319592,0.961394,-8.543551,-11.156523,-63.115143,,,,,,,
1508437078.672051,0.140658,0.358496,-0.744904,2.583806,-0.083324,0.433378,0.131282,-0.350866,-0.927177,-0.025981,0.306951,0.965401,-8.273859,-12.844757,-62.829430,,,,,,,
1508437078.692055,0.133219,0.400469,-0.743795,1.711982,-0.374618,0.252720,0.122316,-0.389850,-0.912719,-0.111192,0.164859,1.008483,-8.682884,-17.286367,-61.699036,,,,,,,
1508437078.712046,0.133582,0.424133,-0.742940,0.880417,0.325571,0.190941,0.121385,-0.411531,-0.903276,-0.164094,0.178163,0.908739,-8.931189,-18.939377,-61.176102,,,,,,,
1508437078.732068,0.145186,0.435415,-0.741680,0.369660,0.684897,0.083748,0.131178,-0.421787,-0.897156,-0.089811,0.191471,0.805862,-8.721525,-19.416794,-61.056572,,,,,,,
1508437078.752048,0.154912,0.439253,-0.740491,0.127784,0.346197,0.092040,0.139646,-0.425264,-0.894231,-0.020994,0.120836,0.467565,-7.667194,-20.022858,-61.002304,,,,,,,
1508437078.772076,0.156749,0.442046,-0.740120,0.147682,0.015114,-0.013002,0.141103,-0.427790,-0.892797,-0.078389,0.114390,0.385762,-7.470429,-20.172140,-60.977531,,,,,,,
1508437078.792082,0.159760,0.443981,-0.743095,0.062228,0.145423,-0.177972,0.143659,-0.429538,-0.891549,-0.101621,0.073077,0.329583,-7.449230,-20.266275,-60.948902,,,,,,,
1508437078.812085,0.167526,0.440789,-0.747457,-0.248907,0.376740,-0.219480,0.150806,-0.426653,-0.891754,-0.040759,-0.035566,0.197189,-6.999021,-20.324013,-60.983028,,,,,,,
1508437078.832092,0.177026,0.432493,-0.749488,-0.456329,0.420282,-0.127188,0.159888,-0.419136,-0.893734,-0.000739,0.010307,0.111660,-6.410081,-19.932238,-61.176781,,,,,,,
1508437078.852098,0.183724,0.422482,-0.750347,-0.474090,0.256274,-0.143989,0.166629,-0.410025,-0.896724,0.020337,0.028861,0.082927,-6.141387,-19.652470,-61.294746,,,,,,,
1508437078.872102,0.187267,0.411721,-0.751352,-0.341051,0.166702,-0.115067,0.170616,-0.400187,-0.900411,-0.012871,0.030680,0.045080,-5.603234,-18.850460,-61.597450,,,,,,,
1508437078.892107,0.190624,0.405979,-0.751922,-0.229649,0.172983,-0.073656,0.174071,-0.394918,-0.902075,-0.019179,0.067251,0.059133,-5.419610,-18.327747,-61.771381,,,,,,,
1508437078.912098,0.195345,0.401829,-0.753188,-0.198922,0.228454,-0.117135,0.178644,-0.391103,-0.902843,-0.030680,0.089513,0.054729,-3.591483,-16.296534,-51.526470,,,,,,,
1508437078.932103,0.200631,0.396003,-0.754913,-0.326264,0.223172,-0.123361,0.183865,-0.385734,-0.904104,0.032230,0.057410,0.160787,-3.184130,-15.967085,-51.656231,,,,,,,
1508437078.952102,0.204496,0.387989,-0.754712,-0.417936,0.194269,-0.040768,0.187980,-0.378328,-0.906384,-0.005592,0.077287,0.276196,-2.943667,-15.588499,-51.785969,,,,,,,
1508437078.972129,0.207517,0.380438,-0.753030,-0.340637,0.171764,0.017081,0.191300,-0.371327,-0.908582,-0.038926,0.087453,0.334485,-2.837577,-15.372473,-51.856415,,,,,,,
1508437078.992134,0.208372,0.376448,-0.751669,-0.134649,-0.018948,0.009029,0.192382,-0.367620,-0.909860,-0.126189,0.118947,0.489770,-2.630436,-14.898311,-52.005516,,,,,,,
1508437079.012129,0.206356,0.372718,-0.752168,-0.269592,-0.109223,-0.108986,0.190827,-0.364148,-0.911582,-0.184617,0.124280,0.566046,-2.711982,-14.750175,-52.043541,,,,,,,
1508437079.032144,0.208472,0.361607,-0.753229,-0.693521,0.227657,-0.189261,0.193581,-0.353778,-0.915078,-0.217507,0.143161,0.586999,-2.734622,-14.586531,-52.088463,,,,,,,
1508437079.052137,0.217566,0.342743,-0.754003,-1.025394,0.564495,-0.260008,0.203299,-0.336071,-0.919633,-0.153113,0.260449,0.585359,-2.234113,-13.453726,-52.416206,,,,,,,
1508437079.072135,0.229033,0.321186,-0.755022,-1.013465,0.476141,-0.291791,0.215425,-0.315692,-0.924083,-0.071611,0.303851,0.537700,-1.553852,-12.367397,-52.707550,,,,,,,
1508437079.092161,0.231262,0.302527,-0.755723,-0.820744,-0.171777,-0.187638,0.218797,-0.297934,-0.929174,-0.042359,0.239981,0.533177,-1.300023,-11.846463,-52.833927,,,,,,,
1508437079.112164,0.215780,0.287371,-0.752472,-0.798062,-1.029841,0.086032,0.205329,-0.283432,-0.936753,-0.112510,0.088104,0.502625,-1.736523,-10.548679,-53.095791,,,,,,,
1508437079.132163,0.189080,0.266790,-0.743248,-1.349871,-1.258118,0.313680,0.181306,-0.263636,-0.947430,-0.163865,0.033503,0.493161,-2.655332,-9.832614,-53.195129,,,,,,,
1508437079.152176,0.158854,0.227863,-0.730143,-2.495006,-1.369372,0.159406,0.154098,-0.225896,-0.961886,-0.161315,-0.023859,0.209948,-4.080434,-8.225620,-53.377357,,,,,,,
1508437079.172181,0.137950,0.165701,-0.725853,-3.363356,-0.717179,-0.400678,0.135630,-0.164944,-0.976933,-0.256189,0.026867,-0.355953,-5.698763,-4.556308,-53.667652,,,,,,,
1508437079.192161,0.129438,0.096175,-0.724555,-3.446091,-0.250566,-0.410582,0.128480,-0.096027,-0.987052,-0.052003,0.167118,-0.765817,-6.250485,-0.913026,-53.791733,,,,,,,
1508437079.212177,0.125957,0.030511,-0.726803,-3.017800,-0.191698,-0.604758,0.125566,-0.030506,-0.991616,0.190184,0.340870,-1.218528,-6.418281,1.781863,-53.750195,,,,,,,
1508437079.232172,0.119128,-0.013885,-0.733205,-1.583019,-0.418029,-0.533242,0.118835,0.013884,-0.992817,0.168549,0.402543,-1.283688,-6.825344,5.251490,-53.472324,,,,,,,
1508437079.252177,0.111457,-0.030832,-0.739373,-0.465423,-0.340967,-0.323004,0.111173,0.030827,-0.993323,0.179278,0.273998,-1.172189,-7.301173,6.346288,-53.290436,,,,,,,
1508437079.272206,0.104782,-0.035533,-0.742925,-0.158925,-0.295605,-0.139422,0.104525,0.035526,-0.993888,0.222242,-0.017627,-0.771600,-7.600638,6.581553,-53.219982,,,,,,,
1508437079.292210,0.100642,-0.039471,-0.742975,-0.233584,-0.161762,0.058091,0.100394,0.039461,-0.994165,0.143228,-0.080446,-0.594214,-7.959834,6.796175,-53.140434,,,,,,,
1508437079.312216,0.096686,-0.042876,-0.740103,-0.092807,-0.283382,0.132258,0.096446,0.042863,-0.994415,0.091298,-0.012788,-0.408158,-8.129087,7.045846,-53.082264,,,,,,,
1508437079.332222,0.090288,-0.039848,-0.738149,0.283959,-0.330326,0.121993,0.090093,0.039837,-0.995136,0.038019,-0.011715,-0.294994,-8.279848,7.081371,-53.054230,,,,,,,
1508437079.352226,0.084019,-0.032411,-0.734766,0.337781,-0.302889,0.245246,0.083877,0.032406,-0.995949,-0.067550,-0.188229,-0.035972,-8.767237,6.680658,-53.027889,,,,,,,
1508437079.372227,0.079167,-0.029091,-0.730850,0.004330,-0.182246,0.150978,0.079051,0.029087,-0.996446,-0.108012,-0.151371,0.070085,-8.975447,6.494558,-53.016174,,,,,,,
1508437079.392238,0.078171,-0.033259,-0.730261,-0.295537,0.017478,-0.074550,0.078048,0.033253,-0.996395,-0.092285,-0.031391,0.054424,-9.121910,6.563718,-52.982647,,,,,,,
1508437079.412242,0.080219,-0.039449,-0.733892,-0.260170,0.155259,-0.262111,0.080071,0.039439,-0.996009,-0.051415,0.034795,-0.001672,-9.072445,6.922903,-52.945412,,,,,,,
1508437079.432223,0.083485,-0.042510,-0.738004,-0.070455,0.157137,-0.161006,0.083312,0.042497,-0.995617,0.008393,0.019026,-0.036274,-8.963825,7.053645,-52.946659,,,,,,,
