timestamp(unix),attitude_roll(radians),attitude_pitch(radians),attitude_yaw(radians),rotation_rate_x(radians/s),rotation_rate_y(radians/s),rotation_rate_z(radians/s),gravity_x(G),gravity_y(G),gravity_z(G),user_acc_x(G),user_acc_y(G),user_acc_z(G),magnetic_field_x(microteslas),magnetic_field_y(microteslas),magnetic_field_z(microteslas),latitude(degree),longitude(degree),altitude(meter),speed(m/s),course(degree),timestamp(unix),User Mark
1508184071.818374,0.035842,0.014417,-3.089494,0.007068,0.031910,-0.063843,0.035831,-0.014417,-0.999254,-0.015307,-0.004916,0.012331,21.481529,21.180735,-28.611036,,,,,,,
1508184071.838374,0.036493,0.014121,-3.091070,-0.022940,0.025566,-0.083989,0.036481,-0.014120,-0.999235,-0.015256,-0.010111,0.012144,21.476944,21.194622,-28.604191,,,,,,,
1508184071.858368,0.036436,0.013582,-3.092653,-0.045280,-0.011724,-0.078100,0.036425,-0.013582,-0.999244,0.000776,-0.007490,0.012718,21.437374,21.260719,-28.584816,,,,,,,
1508184071.878385,0.035584,0.012520,-3.093937,-0.040897,-0.025613,-0.058708,0.035573,-0.012519,-0.999289,-0.014089,0.001701,0.014731,21.393726,21.319597,-28.573664,,,,,,,
1508184071.898387,0.035242,0.012425,-3.095229,0.016832,-0.021341,-0.071609,0.035232,-0.012425,-0.999302,-0.014113,0.005467,0.015186,21.365641,21.342741,-28.577398,,,,,,,
1508184071.918397,0.034480,0.013218,-3.096773,0.009311,-0.016004,-0.077012,0.034470,-0.013217,-0.999318,-0.005326,-0.007702,0.019948,21.295364,21.368769,-28.610382,,,,,,,
1508184071.938415,0.034191,0.013194,-3.098253,-0.037773,-0.004294,-0.067550,0.034181,-0.013194,-0.999329,0.000441,-0.008901,0.016525,21.248360,21.394211,-28.626314,,,,,,,
1508184071.958419,0.034058,0.011946,-3.099358,-0.038721,-0.035205,-0.057504,0.034049,-0.011946,-0.999349,0.004876,0.012098,-0.000605,21.229183,21.427330,-28.615768,,,,,,,
1508184071.978426,0.032400,0.011388,-3.100575,-0.010846,-0.051198,-0.055161,0.032392,-0.011388,-0.999410,-0.019498,-0.000499,0.015005,21.163784,21.493710,-28.614429,,,,,,,
1508184071.998436,0.031562,0.011049,-3.101396,-0.004576,0.012687,-0.043296,0.031554,-0.011049,-0.999441,-0.031676,0.008348,0.015966,21.098852,21.521873,-28.641199,,,,,,,
1508184072.018443,0.030293,0.010109,-3.102764,-0.015365,-0.005342,-0.085679,0.030287,-0.010109,-0.999490,-0.026884,0.013436,0.013879,21.064802,21.552242,-28.643429,,,,,,,
1508184072.038422,0.029370,0.009953,-3.104440,-0.013033,-0.056500,-0.073209,0.029364,-0.009953,-0.999519,-0.012641,-0.003627,0.023002,20.990425,21.613747,-28.651686,,,,,,,
1508184072.058457,0.027546,0.009534,-3.105507,-0.026732,-0.099159,-0.046989,0.027541,-0.009534,-0.999575,-0.009108,-0.004763,0.024249,20.909300,21.645479,-28.687025,,,,,,,
1508184072.078455,0.024429,0.009145,-3.106514,-0.018141,-0.116196,-0.053146,0.024425,-0.009145,-0.999660,-0.026119,-0.001735,0.026363,20.824862,21.669481,-28.730291,,,,,,,
1508184072.098450,0.021169,0.009009,-3.107201,0.017986,0.003029,-0.022913,0.021167,-0.009009,-0.999735,-0.056018,0.011893,0.031886,20.710901,21.695610,-28.792881,,,,,,,
1508184072.118461,0.022091,0.010771,-3.107631,0.130186,0.056262,-0.022703,0.022088,-0.010771,-0.999698,-0.046579,0.013975,0.020496,20.675655,21.689966,-28.822451,,,,,,,
1508184072.138484,0.022084,0.013738,-3.108546,0.135704,-0.036349,-0.055486,0.022080,-0.013738,-0.999662,-0.028275,0.008336,0.013364,20.687235,21.623182,-28.864290,,,,,,,
1508184072.158478,0.019495,0.015294,-3.109359,0.042695,-0.026818,-0.020366,0.019492,-0.015294,-0.999693,-0.051581,0.003041,0.035429,20.620409,21.565304,-28.955265,,,,,,,
1508184072.178498,0.016824,0.014570,-3.109487,0.082194,-0.000208,-0.021848,0.016821,-0.014570,-0.999752,-0.045248,0.046812,0.032803,20.576111,21.551657,-28.996906,,,,,,,
1508184072.198481,0.016166,0.017010,-3.112009,0.124576,-0.031859,-0.180299,0.016163,-0.017009,-0.999725,-0.025867,0.050593,0.030120,20.468525,21.568449,-29.060497,,,,,,,
1508184072.218506,0.016108,0.018561,-3.115799,0.046380,0.003299,-0.173286,0.016105,-0.018560,-0.999698,-0.009055,0.016500,0.001102,20.355108,21.583923,-29.128590,,,,,,,
1508184072.238518,0.016703,0.017930,-3.118975,-0.006024,0.005421,-0.161548,0.016700,-0.017929,-0.999700,0.031991,0.029205,0.000371,20.300312,21.659109,-29.111015,,,,,,,
1508184072.258517,0.015817,0.017494,-3.122352,-0.040001,-0.082987,-0.160241,0.015814,-0.017493,-0.999722,0.054101,0.021567,0.003704,20.263634,21.694016,-29.110577,,,,,,,
1508184072.278504,0.015838,0.016331,-3.124475,-0.042931,-0.084213,-0.074916,0.015835,-0.016331,-0.999741,0.065449,0.001667,-0.015014,20.155914,21.818138,-29.092592,,,,,,,
1508184072.298533,0.014186,0.015934,-3.125569,-0.007545,-0.077888,-0.046244,0.014183,-0.015933,-0.999772,0.057625,0.018008,-0.045607,20.097113,21.851765,-29.108030,,,,,,,
1508184072.318546,0.012711,0.016252,-3.126484,0.029864,-0.070428,-0.052778,0.012709,-0.016251,-0.999787,0.070207,0.015381,-0.055312,20.047333,21.868937,-29.129454,,,,,,,
1508184072.338554,0.011570,0.017032,-3.127287,0.050236,-0.048128,-0.020062,0.011568,-0.017032,-0.999788,0.059339,-0.001981,-0.043913,19.957745,21.871853,-29.188721,,,,,,,
1508184072.358560,0.011990,0.018308,-3.127564,0.092902,-0.004457,-0.021793,0.011988,-0.018307,-0.999761,0.026510,0.010388,-0.025828,19.957932,21.845810,-29.208090,,,,,,,
1508184072.378568,0.012548,0.019779,-3.128710,0.048683,0.051058,-0.078013,0.012545,-0.019778,-0.999726,0.017088,0.010562,-0.016464,19.951859,21.824150,-29.228420,,,,,,,
1508184072.398573,0.013681,0.019452,-3.131035,-0.050970,0.028839,-0.141582,0.013678,-0.019450,-0.999717,0.050760,-0.031987,0.026741,19.938158,21.847033,-29.220678,,,,,,,
1508184072.418579,0.013158,0.016901,-3.134302,-0.172809,-0.045652,-0.163869,0.013156,-0.016901,-0.999771,0.087751,-0.059622,-0.006943,19.862175,21.965876,-29.183304,,,,,,,
1508184072.438563,0.012682,0.012741,-3.136935,-0.201658,-0.013772,-0.121658,0.012681,-0.012741,-0.999838,0.063094,-0.050919,-0.040140,19.795946,22.095829,-29.130156,,,,,,,
1508184072.458594,0.014738,0.010684,-3.139196,-0.088241,0.006419,-0.107107,0.014737,-0.010684,-0.999834,0.063571,-0.005216,-0.057691,19.782198,22.261429,-29.013176,,,,,,,
1508184072.478601,0.014654,0.009925,-3.140478,-0.010843,-0.029971,-0.030930,0.014653,-0.009925,-0.999843,0.079555,-0.026116,-0.034733,19.747343,22.327187,-28.986378,,,,,,,
1508184072.498608,0.012963,0.009973,-3.140644,0.002292,-0.102459,-0.006430,0.012962,-0.009973,-0.999866,0.074761,-0.027869,-0.024304,27.043640,20.470490,-28.329102,,,,,,,
1508184072.518615,0.013457,0.010807,-3.140723,-0.034235,-0.049185,-0.003976,0.013456,-0.010807,-0.999851,0.028704,-0.035351,-0.009457,27.054440,20.438934,-28.341572,,,,,,,
1508184072.538595,0.012872,0.009788,-3.141141,-0.041908,-0.018235,-0.032143,0.012872,-0.009788,-0.999869,0.026374,-0.024605,-0.013635,27.013203,20.467875,-28.360016,,,,,,,
1508184072.558628,0.012367,0.009849,3.141210,0.023373,-0.031016,-0.041604,0.012366,-0.009849,-0.999875,0.024530,-0.002923,-0.025012,26.994555,20.498104,-28.355938,,,,,,,
1508184072.578635,0.012881,0.010590,3.140734,0.010594,-0.024666,-0.017161,0.012880,-0.010589,-0.999861,0.025801,-0.016175,-0.005770,26.990990,20.500067,-28.357916,,,,,,,
1508184072.598643,0.012474,0.010451,3.140210,-0.014091,-0.016107,-0.032195,0.012473,-0.010451,-0.999868,0.005945,-0.012422,-0.005595,26.963394,20.507509,-28.378777,,,,,,,
1508184072.618626,0.012434,0.010562,3.139235,0.025366,-0.003274,-0.062267,0.012433,-0.010562,-0.999867,0.001727,-0.007169,-0.010738,26.947260,20.525930,-28.380783,,,,,,,
1508184072.638639,0.012347,0.011064,3.137667,0.056414,-0.023496,-0.074793,0.012345,-0.011064,-0.999863,0.016875,0.005662,-0.009018,26.906506,20.567368,-28.389450,,,,,,,
1508184072.658663,0.011468,0.011635,3.136485,0.012711,-0.054424,-0.050853,0.011467,-0.011635,-0.999867,0.036827,-0.013115,-0.016918,26.872149,20.574974,-28.416466,,,,,,,
1508184072.678666,0.010505,0.011785,3.135710,0.009528,-0.041681,-0.030776,0.010504,-0.011784,-0.999875,0.034265,-0.007457,-0.027926,26.833563,20.589741,-28.442221,,,,,,,
1508184072.698676,0.010221,0.011980,3.135207,0.009422,0.003043,-0.022894,0.010220,-0.011979,-0.999876,0.049228,0.004518,-0.040087,26.785692,20.606627,-28.475096,,,,,,,
1508184072.718684,0.014176,0.012259,3.134799,-0.017380,0.030742,-0.013678,0.014174,-0.012259,-0.999824,0.078569,-0.010126,-0.026146,26.884775,20.606804,-28.381435,,,,,,,
1508184072.738690,0.016148,0.012377,3.135271,0.032849,0.133909,0.060495,0.016146,-0.012377,-0.999793,0.085020,-0.011945,-0.003243,26.895298,20.614176,-28.366110,,,,,,,
1508184072.758696,0.017682,0.014209,3.138514,0.118294,0.008921,0.227520,0.017679,-0.014208,-0.999743,0.109045,-0.032255,0.010821,27.040838,20.504025,-28.307518,,,,,,,
1508184072.778704,0.015375,0.016957,-3.138907,0.129749,-0.157420,0.308830,0.015372,-0.016956,-0.999738,0.094201,-0.056210,0.022107,27.111721,20.284218,-28.397936,,,,,,,
1508184072.798711,0.012591,0.019139,-3.133393,0.084420,-0.097626,0.244019,0.012588,-0.019138,-0.999738,0.041947,-0.049145,0.029645,27.128292,20.165302,-28.466717,,,,,,,
1508184072.818717,0.009968,0.021302,-3.129845,0.008945,-0.018576,0.138432,0.009966,-0.021301,-0.999723,-0.031740,-0.023514,0.008177,27.167322,19.974089,-28.564135,,,,,,,
1508184072.838709,0.010423,0.021013,-3.127990,-0.009668,0.051866,0.072380,0.010420,-0.021011,-0.999725,-0.034544,0.019043,-0.050797,27.190163,19.822739,-28.647717,,,,,,,
1508184072.858714,0.011595,0.022179,-3.127273,0.104582,0.066875,0.010231,0.011592,-0.022177,-0.999687,-0.035808,0.032644,-0.058998,27.231327,19.792040,-28.629833,,,,,,,
1508184072.878720,0.013719,0.025347,-3.127771,0.178093,0.129791,-0.032322,0.013714,-0.025344,-0.999585,-0.040753,0.031631,-0.038227,27.264006,19.743402,-28.632318,,,,,,,
1508184072.898746,0.016717,0.029163,-3.128941,0.201418,0.151184,-0.079567,0.016709,-0.029159,-0.999435,-0.035858,0.027114,0.014984,27.353924,19.621405,-28.630419,,,,,,,
1508184072.918726,0.020078,0.033138,-3.131453,0.190430,0.177946,-0.143925,0.020065,-0.033132,-0.999250,-0.040634,0.021353,0.034284,27.391626,19.573530,-28.627142,,,,,,,
1508184072.938752,0.024222,0.036012,-3.134741,0.117516,0.202512,-0.167685,0.024204,-0.036004,-0.999058,-0.038013,0.005258,0.073064,27.426523,19.550970,-28.609138,,,,,,,
1508184072.958766,0.027666,0.037348,-3.138069,0.053526,0.141789,-0.157160,0.027643,-0.037340,-0.998920,-0.009699,0.000368,0.073414,27.485176,19.581034,-28.532187,,,,,,,
1508184072.978755,0.029963,0.038038,-3.141003,0.032341,0.093812,-0.134056,0.029937,-0.038029,-0.998828,-0.003219,0.008290,0.068759,27.499401,19.623419,-28.489326,,,,,,,
1508184072.998780,0.030990,0.038650,3.140004,0.033751,0.014919,-0.100924,0.030962,-0.038640,-0.998773,-0.005190,0.014135,0.051019,27.501427,19.679049,-28.448973,,,,,,,
1508184073.018787,0.031017,0.037636,3.138060,-0.023982,0.007457,-0.091176,0.030991,-0.037627,-0.998811,-0.010513,0.009673,0.049959,27.463396,19.758018,-28.430971,,,,,,,
1508184073.038783,0.031509,0.036485,3.136160,-0.072273,0.035200,-0.108603,0.031483,-0.036477,-0.998838,-0.022999,0.010064,0.041105,27.438599,19.805626,-28.421787,,,,,,,
1508184073.058783,0.032723,0.034913,3.133836,-0.069151,0.056519,-0.116378,0.032697,-0.034906,-0.998856,-0.008100,0.019022,-0.004135,27.407852,19.954197,-28.347433,,,,,,,
1508184073.078807,0.033697,0.032971,3.131968,-0.059360,0.042594,-0.078863,0.033672,-0.032965,-0.998889,-0.000927,0.010260,-0.002881,27.393238,20.066837,-28.281977,,,,,,,
1508184073.098811,0.034261,0.031783,3.130968,-0.055955,0.021207,-0.038036,0.034237,-0.031778,-0.998908,0.001224,0.007013,-0.002022,27.387964,20.119534,-28.249622,,,,,,,
1508184073.118822,0.034689,0.030900,3.130508,-0.032341,0.019030,-0.017763,0.034665,-0.030895,-0.998921,-0.015088,0.010387,0.017781,27.386341,20.177950,-28.209503,,,,,,,
1508184073.138828,0.033738,0.030444,3.130456,-0.012871,-0.028956,0.003178,0.033716,-0.030439,-0.998968,-0.015329,0.001768,0.020590,27.362759,20.198242,-28.217865,,,,,,,
1508184073.158809,0.032170,0.029508,3.130720,-0.078988,-0.090750,0.016920,0.032151,-0.029503,-0.999048,-0.012620,-0.034675,0.012307,27.342052,20.204966,-28.233120,,,,,,,
1508184073.178834,0.030283,0.027250,3.131013,-0.130361,-0.102427,0.003266,0.030267,-0.027247,-0.999170,-0.035821,-0.037985,-0.055914,27.285221,20.259872,-28.248745,,,,,,,
1508184073.198841,0.025126,0.027582,3.131405,-0.116094,-0.190906,0.029063,0.025114,-0.027579,-0.999304,-0.070479,-0.096521,-0.211267,27.157644,20.245291,-28.381824,,,,,,,
1508184073.218857,0.020312,0.025087,3.131765,-0.116181,-0.206802,-0.012292,0.020304,-0.025085,-0.999479,-0.106974,-0.126725,-0.297747,27.157644,20.245291,-28.381824,,,,,,,
1508184073.238858,0.020330,0.025540,3.128972,0.142088,0.141912,-0.236135,0.020322,-0.025538,-0.999467,-0.217694,-0.058065,-0.478789,26.948702,20.369741,-28.491728,,,,,,,
1508184073.258870,0.026002,0.032750,3.122096,0.484733,0.282701,-0.368522,0.025985,-0.032745,-0.999126,-0.102905,-0.134217,-0.584019,26.961458,20.371513,-28.478390,,,,,,,
1508184073.278859,0.030901,0.043206,3.114243,0.536382,0.197448,-0.357728,0.030867,-0.043193,-0.998590,-0.059523,-0.163900,-0.617438,26.961771,20.329370,-28.508190,,,,,,,
1508184073.298859,0.034982,0.054971,3.107568,0.686343,0.211140,-0.298326,0.034922,-0.054943,-0.997879,-0.034144,-0.107349,-0.754639,26.922976,20.135141,-28.682173,,,,,,,
1508184073.318890,0.039544,0.074963,3.100943,1.235462,0.169424,-0.281072,0.039423,-0.074893,-0.996412,0.019553,-0.079114,-0.737582,26.929295,19.791857,-28.914234,,,,,,,
1508184073.338894,0.041235,0.105709,3.095996,1.691234,0.045354,-0.086614,0.040993,-0.105512,-0.993573,0.063133,-0.103228,-0.696781,26.916615,19.485344,-29.133398,,,,,,,
1508184073.358894,0.042026,0.143326,3.096582,1.996055,0.042584,0.195767,0.041582,-0.142836,-0.988873,0.054197,-0.085298,-0.553135,26.932831,17.990196,-30.065147,,,,,,,
1508184073.378910,0.041994,0.187471,3.099082,2.323600,0.013727,0.202338,0.041246,-0.186375,-0.981613,0.065016,-0.009350,-0.460953,27.022751,16.585497,-30.783596,,,,,,,
1508184073.398908,0.043879,0.238430,3.100672,2.679441,0.163865,0.188174,0.042624,-0.236177,-0.970775,0.046991,0.057649,-0.380345,27.064020,15.799829,-31.158335,,,,,,,
1508184073.418915,0.047219,0.295504,3.101819,2.922270,0.186180,0.185535,0.045156,-0.291222,-0.955589,0.095179,0.127267,-0.101143,18.166351,18.800135,-43.694759,,,,,,,
1508184073.438931,0.050135,0.355599,3.103090,3.024161,0.143478,0.219134,0.046979,-0.348152,-0.936260,0.097232,0.194511,-0.017414,18.338240,16.791161,-44.434887,,,,,,,
1508184073.458918,0.052344,0.415727,3.104579,2.965328,0.142416,0.224525,0.047864,-0.403855,-0.913570,0.079639,0.272828,0.181499,18.487703,14.701571,-45.108337,,,,,,,
1508184073.478943,0.054520,0.473044,3.105769,2.771563,0.136137,0.192772,0.048509,-0.455598,-0.888863,0.094573,0.353242,0.405968,18.757765,10.554514,-46.145874,,,,,,,
1508184073.498952,0.057935,0.524861,3.106662,2.469479,0.240617,0.187218,0.050109,-0.501093,-0.863942,0.091844,0.402689,0.447194,18.890465,8.626625,-46.491127,,,,,,,
1508184073.518946,0.062847,0.570820,3.108130,2.181520,0.299239,0.205777,0.052848,-0.540323,-0.839797,0.081628,0.465417,0.528365,19.078255,6.845509,-46.710304,,,,,,,
1508184073.538941,0.067392,0.611014,3.109849,1.886323,0.247126,0.201423,0.055157,-0.573698,-0.817208,0.084965,0.502226,0.636361,19.513851,3.713596,-46.884029,,,,,,,
1508184073.558947,0.069494,0.644727,3.112415,1.553983,0.125717,0.229024,0.055499,-0.600980,-0.797335,0.087125,0.506589,0.634417,19.683001,2.385937,-46.899681,,,,,,,
1508184073.578978,0.068449,0.671872,3.116192,1.214028,0.036286,0.247637,0.053530,-0.622452,-0.780825,0.042768,0.500260,0.683703,19.779371,1.225912,-46.903805,,,,,,,
1508184073.598969,0.066074,0.691366,3.120773,0.781745,0.007672,0.228117,0.050865,-0.637590,-0.768695,-0.016212,0.494234,0.724215,19.840700,-0.553366,-46.890656,,,,,,,
1508184073.618993,0.064291,0.699007,3.123372,0.115522,0.039071,0.057553,0.049180,-0.643457,-0.763900,-0.004075,0.478479,0.715500,19.826653,-1.049353,-46.888123,,,,,,,
1508184073.638972,0.067515,0.693684,3.123608,-0.461052,0.234341,-0.036548,0.051872,-0.639374,-0.767144,-0.060265,0.436417,0.684823,19.855129,-1.149490,-46.873722,,,,,,,
1508184073.658997,0.074498,0.679989,3.122245,-0.778439,0.336896,-0.143361,0.057875,-0.628785,-0.775423,-0.057615,0.460389,0.591310,20.200472,-0.427727,-46.738113,,,,,,,
1508184073.679014,0.082016,0.662038,3.118710,-0.945305,0.212493,-0.237399,0.064617,-0.614725,-0.786090,-0.051052,0.428385,0.571383,20.418913,0.200287,-46.644630,,,,,,,
1508184073.698999,0.085904,0.639883,3.114927,-1.198340,0.009117,-0.247055,0.068825,-0.597101,-0.799208,-0.041160,0.339045,0.480314,20.561817,0.935005,-46.572853,,,,,,,
1508184073.719008,0.087270,0.610948,3.110789,-1.547272,-0.042841,-0.322814,0.071393,-0.573644,-0.815987,-0.048581,0.273641,0.313851,20.545982,2.849018,-46.502033,,,,,,,
1508184073.739034,0.090985,0.578328,3.105689,-1.589546,0.075529,-0.382079,0.076083,-0.546624,-0.833914,-0.100177,0.297052,0.216162,20.533405,4.470787,-46.379787,,,,,,,
1508184073.759028,0.096864,0.548481,3.098618,-1.350234,0.116109,-0.462820,0.082527,-0.521392,-0.849317,-0.104240,0.280746,0.208097,20.552830,5.279369,-46.286098,,,,,,,
1508184073.779031,0.102597,0.523877,3.090941,-1.125083,0.029656,-0.406287,0.088682,-0.500241,-0.861333,-0.062330,0.141034,0.223485,20.618122,7.388395,-45.967358,,,,,,,
1508184073.799056,0.099455,0.500918,3.087500,-1.179622,-0.484177,-0.203661,0.087093,-0.480231,-0.872808,-0.035228,0.069754,0.197911,20.541960,8.258476,-45.853233,,,,,,,
1508184073.819053,0.083646,0.468493,3.085996,-1.949971,-0.925970,-0.246793,0.074546,-0.451542,-0.889130,0.018410,-0.082943,0.108292,20.183828,9.147863,-45.843464,,,,,,,
1508184073.839051,0.068557,0.417477,3.084200,-2.833417,-0.722261,-0.260813,0.062620,-0.405456,-0.911967,-0.058409,-0.220170,-0.050359,18.938498,12.146252,-45.678169,,,,,,,
1508184073.859076,0.050619,0.353116,3.084905,-3.440850,-1.027093,-0.097058,0.047475,-0.345823,-0.937098,-0.025686,-0.304202,-0.153661,18.372831,14.246636,-45.300835,,,,,,,
1508184073.879084,0.024613,0.276107,3.089650,-4.156639,-1.422764,0.228041,0.023678,-0.272613,-0.961832,0.054386,-0.476487,-0.367635,17.408546,17.433439,-44.561317,,,,,,,
1508184073.899078,-0.018778,0.173153,3.098864,-5.797475,-2.449738,0.478752,-0.018496,-0.172289,-0.984873,0.230914,-0.650342,-0.711783,15.713124,22.313814,-42.987026,,,,,,,
1508184073.919096,-0.074502,0.037220,3.097505,-7.140336,-2.476430,0.144262,-0.074381,-0.037211,-0.996535,0.214945,-0.545095,-0.875855,14.125820,26.186148,-41.321182,,,,,,,
1508184073.939076,-0.092692,-0.088359,3.089996,-5.258157,0.153024,0.211347,-0.092198,0.088244,-0.991823,-0.435756,0.245008,-1.088484,12.723864,30.415882,-38.802979,,,,,,,
1508184073.959107,-0.069441,-0.134285,3.094726,-0.309958,1.181164,0.562731,-0.068760,0.133882,-0.988609,-0.196163,0.962127,-2.001351,13.276398,35.240211,-34.271824,,,,,,,
1508184073.979093,-0.061686,-0.083907,3.104374,3.845288,-0.178084,0.047241,-0.061430,0.083809,-0.994587,0.282011,0.545296,-1.620983,13.983742,34.640488,-34.600361,,,,,,,
1508184073.999110,-0.073799,0.005617,3.106033,4.547923,-0.695438,-0.215558,-0.073731,-0.005617,-0.997262,0.210526,0.107210,-1.370291,13.930266,32.623104,-36.529087,,,,,,,
1508184074.019105,-0.077157,0.088533,3.112484,3.833149,0.314048,0.051842,-0.076779,-0.088417,-0.993120,-0.338764,-0.269188,-0.499373,13.244568,27.569061,-40.708988,,,,,,,
1508184074.039138,-0.056177,0.155383,3.113170,3.076373,1.378191,-0.374615,-0.055471,-0.154759,-0.986394,-0.313929,-0.176418,-0.368159,13.632509,25.325083,-42.017715,,,,,,,
1508184074.059138,-0.024856,0.212898,3.103428,2.781901,1.456670,-0.696489,-0.024293,-0.211294,-0.977121,-0.058975,-0.037882,-0.221747,14.614269,22.860838,-43.087105,,,,,,,
1508184074.079133,0.004503,0.270044,3.088693,2.953831,1.169093,-0.736166,0.004340,-0.266774,-0.963749,0.104089,0.174092,-0.012340,15.743322,20.072056,-44.067604,,,,,,,
1508184074.099158,0.028109,0.333192,3.073744,3.272967,0.875789,-0.593532,0.026559,-0.327061,-0.944630,0.095603,0.254689,0.079930,16.252470,18.214594,-44.685333,,,,,,,
1508184074.119166,0.048474,0.399873,3.061567,3.366181,0.741060,-0.349598,0.044632,-0.389301,-0.920029,0.098785,0.292515,0.308426,16.692110,16.153358,-45.311543,,,,,,,
1508184074.139166,0.064133,0.464135,3.051348,3.099712,0.478911,-0.265624,0.057309,-0.447650,-0.892371,0.106799,0.309420,0.538519,17.495094,11.762730,-46.349251,,,,,,,
1508184074.159179,0.077284,0.519159,3.041162,2.554315,0.394842,-0.239470,0.067034,-0.496150,-0.865645,0.092360,0.338115,0.648955,17.848778,9.140976,-46.803387,,,,,,,
1508184074.179179,0.089195,0.561528,3.032108,1.893273,0.360825,-0.191564,0.075399,-0.532480,-0.843077,0.059596,0.379297,0.669600,18.009377,8.022923,-46.946655,,,,,,,
1508184074.199168,0.101670,0.591204,3.025195,1.289567,0.500386,-0.123825,0.084268,-0.557361,-0.825983,0.018302,0.454685,0.777399,18.517323,5.555475,-47.105614,,,,,,,
1508184074.219200,0.115596,0.611877,3.020870,0.931237,0.573757,-0.013725,0.094413,-0.574405,-0.813108,0.003915,0.497470,0.772856,19.030945,4.520519,-47.011505,,,,,,,
1508184074.239195,0.123371,0.626336,3.020349,0.557031,0.224237,0.095056,0.099700,-0.586180,-0.804023,0.016557,0.503859,0.759513,19.287550,4.097740,-46.945633,,,,,,,
1508184074.259186,0.123394,0.629990,3.022449,-0.077804,-0.008947,0.123439,0.099454,-0.589136,-0.801890,0.025775,0.425745,0.735911,19.587805,3.393475,-46.877453,,,,,,,
1508184074.279219,0.118515,0.621619,3.029121,-0.640043,-0.052779,0.272712,0.096120,-0.582352,-0.807234,-0.019292,0.389100,0.721815,19.572979,3.512115,-46.874908,,,,,,,
1508184074.299217,0.112506,0.604966,3.037257,-0.996618,-0.067424,0.183623,0.092344,-0.568734,-0.817321,-0.070081,0.405038,0.634490,19.537489,4.047930,-46.846497,,,,,,,
1508184074.319234,0.107904,0.579922,3.043051,-1.417619,-0.054272,0.051526,0.090087,-0.547959,-0.831640,-0.078399,0.334229,0.483358,19.472479,5.276688,-46.751175,,,,,,,
1508184074.339239,0.107409,0.548696,3.045146,-1.632689,0.072965,-0.159153,0.091466,-0.521575,-0.848289,-0.091908,0.341949,0.431937,19.459328,6.313793,-46.627930,,,,,,,
1508184074.359248,0.109313,0.513674,3.044358,-1.787002,0.074205,-0.227298,0.095016,-0.491381,-0.865746,-0.060775,0.254168,0.313729,19.499079,7.921341,-46.365200,,,,,,,
1508184074.379243,0.108886,0.478363,3.045271,-1.700546,-0.062443,-0.088895,0.096473,-0.460326,-0.882492,-0.016547,0.177154,0.225891,19.504505,10.068190,-45.944519,,,,,,,
1508184074.399251,0.102115,0.448339,3.050448,-1.402539,-0.324005,0.166329,0.091863,-0.433469,-0.896474,-0.038931,0.144757,0.198354,19.415737,11.196234,-45.720528,,,,,,,
1508184074.419245,0.088886,0.421399,3.058410,-1.421917,-0.582968,0.224481,0.081004,-0.409037,-0.908915,-0.054362,0.086116,0.140986,19.131836,12.400380,-45.529076,,,,,,,
1508184074.439271,0.076171,0.389575,3.064157,-1.718018,-0.469714,0.091905,0.070396,-0.379795,-0.922388,-0.047752,-0.055843,0.068049,18.567804,14.019685,-45.292149,,,,,,,
1508184074.459282,0.063474,0.350403,3.069301,-2.184982,-0.660329,0.119545,0.059577,-0.343277,-0.937343,-0.028968,-0.148697,0.060695,18.267630,15.212613,-45.028477,,,,,,,
1508184074.479273,0.043375,0.296633,3.075744,-3.051385,-1.055467,0.196301,0.041467,-0.292302,-0.955427,0.117209,-0.352305,-0.070574,17.676332,17.215836,-44.540497,,,,,,,
1508184074.499292,0.015558,0.221680,3.082542,-4.234691,-1.449360,0.223161,0.015176,-0.219869,-0.975411,0.193625,-0.472545,-0.296790,16.503654,20.793737,-43.450470,,,,,,,
1508184074.519302,-0.024401,0.112715,3.085588,-6.317090,-2.291187,0.097246,-0.024244,-0.112476,-0.993359,0.314558,-0.608395,-0.345448,15.521562,23.741096,-42.286346,,,,,,,
1508184074.539301,-0.068173,-0.031965,3.078561,-7.522299,-1.938078,-0.010402,-0.068086,0.031960,-0.997167,0.446717,-0.499718,-0.513910,14.158440,27.619205,-40.365967,,,,,,,
1508184074.559296,-0.085012,-0.164910,3.071309,-5.705231,-0.177270,0.306048,-0.083757,0.164164,-0.982871,0.100573,0.783590,-1.253961,12.401043,35.671013,-34.153866,,,,,,,
1508184074.579324,-0.076301,-0.226954,3.080473,-1.228731,0.416788,0.982906,-0.074272,0.225011,-0.971521,0.337654,0.998439,-1.738821,12.696854,37.921520,-31.518909,,,,,,,
1508184074.599324,-0.071721,-0.200512,3.108300,2.667579,-0.397593,1.299954,-0.070224,0.199171,-0.977445,0.553073,0.988405,-1.724688,13.433950,38.312668,-30.730471,,,,,,,
1508184074.619316,-0.078869,-0.134001,3.140256,3.509773,-0.647309,1.420236,-0.078081,0.133601,-0.987955,0.479387,-0.017024,-1.189154,14.477148,35.199894,-33.824150,,,,,,,
1508184074.639344,-0.077544,-0.071856,-3.102293,3.053973,0.247669,1.919424,-0.077266,0.071794,-0.994422,0.270260,-0.163683,-0.867059,15.333116,32.347679,-36.210724,,,,,,,
1508184074.659329,-0.058067,-0.020400,-3.061622,2.533861,1.182325,1.761243,-0.058022,0.020398,-0.998107,-0.012763,-0.026685,-0.409165,16.520395,30.287395,-37.449215,,,,,,,
1508184074.679358,-0.030723,0.026665,-3.025678,2.414134,1.409422,1.674867,-0.030707,-0.026662,-0.999173,0.071173,0.045858,-0.288211,18.963926,27.141182,-38.683578,,,,,,,
1508184074.699365,-0.009416,0.076270,-2.990779,2.611445,0.959744,1.724959,-0.009388,-0.076196,-0.997049,0.022266,0.125086,-0.298529,20.397419,25.219786,-39.250492,,,,,,,
1508184074.719360,0.002569,0.131737,-2.954783,2.860626,0.720933,1.793280,0.002547,-0.131356,-0.991332,-0.173690,0.240121,-0.017335,21.962173,22.380362,-40.118271,,,,,,,
1508184074.739378,0.010671,0.191080,-2.920368,2.995048,0.693503,1.643228,0.010476,-0.189920,-0.981744,-0.306253,0.327172,0.184731,23.577219,18.425976,-41.198196,,,,,,,
1508184074.759382,0.020193,0.250645,-2.890702,2.892101,0.860197,1.396705,0.019561,-0.248029,-0.968555,-0.405349,0.347959,0.350055,24.442911,15.992164,-41.707172,,,,,,,
1508184074.779392,0.030688,0.306186,-2.866258,2.634589,0.837299,1.160511,0.029256,-0.301424,-0.953041,-0.433934,0.359011,0.407982,25.559149,12.905607,-42.105446,,,,,,,
1508184074.799399,0.039957,0.354850,-2.846780,2.243477,0.739905,0.905239,0.037458,-0.347450,-0.936950,-0.453428,0.358009,0.580016,26.727518,9.505112,-42.284584,,,,,,,
1508184074.819406,0.046810,0.395066,-2.833038,1.815176,0.514763,0.614526,0.043189,-0.384869,-0.921960,-0.451636,0.361081,0.649331,27.267969,7.809089,-42.286751,,,,,,,
1508184074.839414,0.052433,0.425529,-2.824268,1.321412,0.447123,0.409015,0.047735,-0.412803,-0.909569,-0.478384,0.341621,0.702965,27.773855,6.006248,-42.251995,,,,,,,
1508184074.859406,0.059177,0.448006,-2.819078,1.006275,0.422014,0.219814,0.053306,-0.433169,-0.899735,-0.475105,0.376742,0.695649,28.297274,4.445221,-42.097477,,,,,,,
1508184074.879427,0.065007,0.464859,-2.818347,0.728993,0.249913,0.020987,0.058068,-0.448297,-0.891997,-0.442849,0.341592,0.680891,28.543673,3.782003,-41.995815,,,,,,,
1508184074.899434,0.068199,0.474336,-2.819615,0.316245,0.057377,-0.063348,0.060623,-0.456748,-0.887528,-0.416549,0.271552,0.634660,28.733711,3.204174,-41.914204,,,,,,,
1508184074.919423,0.071179,0.476104,-2.825375,-0.009953,0.000595,-0.392834,0.063210,-0.458320,-0.886537,-0.423043,0.307685,0.561479,28.768904,3.059534,-41.900871,,,,,,,
1508184074.939448,0.078569,0.471031,-2.838894,-0.318537,0.129176,-0.731418,0.069941,-0.453805,-0.888352,-0.397059,0.277657,0.497880,28.753979,3.328400,-41.890617,,,,,,,
1508184074.959437,0.092067,0.461154,-2.857886,-0.457863,0.307574,-0.966354,0.082334,-0.444982,-0.891747,-0.333783,0.297155,0.362847,28.826820,4.051138,-41.776741,,,,,,,
1508184074.979461,0.108589,0.450775,-2.879610,-0.361766,0.292792,-1.044052,0.097550,-0.435663,-0.894808,-0.250733,0.293970,0.208910,29.061573,5.224810,-41.482765,,,,,,,
1508184074.999468,0.117240,0.442338,-2.902287,-0.307635,-0.296270,-1.056876,0.105713,-0.428054,-0.897549,-0.133881,0.182235,0.151486,29.016035,6.103773,-41.394531,,,,,,,
1508184075.019475,0.113541,0.431318,-2.923254,-0.555281,-0.786357,-0.985605,0.102921,-0.418068,-0.902566,-0.146027,0.066918,0.169412,28.639687,6.766679,-41.553265,,,,,,,
1508184075.039482,0.101519,0.410205,-2.941656,-1.281905,-1.060068,-0.921377,0.092937,-0.398797,-0.912318,-0.167995,-0.126563,0.139948,27.554697,8.195974,-42.026871,,,,,,,
1508184075.059489,0.083855,0.368936,-2.955705,-2.471745,-1.268877,-0.760710,0.078121,-0.360623,-0.929434,-0.178829,-0.297580,0.030783,26.467800,10.101691,-42.309631,,,,,,,
1508184075.079495,0.054825,0.300950,-2.965339,-3.913206,-1.875857,-0.681517,0.052334,-0.296427,-0.953620,-0.155896,-0.371877,-0.141564,25.466206,12.175111,-42.378441,,,,,,,
1508184075.099502,0.007695,0.198725,-2.979186,-5.836273,-2.835684,-0.947658,0.007543,-0.197419,-0.980290,-0.198537,-0.437697,-0.315975,22.906883,17.268543,-42.068581,,,,,,,
1508184075.119492,-0.034667,0.069419,-3.005637,-6.599574,-1.803373,-1.435494,-0.034577,-0.069363,-0.996992,-0.349822,-0.270267,-0.232119,20.352642,22.958437,-40.637096,,,,,,,
1508184075.139516,-0.045608,-0.041600,-3.046279,-4.674540,0.279503,-1.849946,-0.045553,0.041588,-0.998096,-0.747278,0.663124,-0.803113,18.926466,27.213812,-38.650883,,,,,,,
1508184075.159502,-0.029264,-0.088019,-3.078940,-0.922209,0.945480,-1.356993,-0.029146,0.087905,-0.995702,-0.393003,0.827393,-1.241663,18.170362,31.484446,-35.654751,,,,,,,
1508184075.179514,-0.024722,-0.067087,-3.110577,1.853500,0.014822,-1.882995,-0.024664,0.067036,-0.997446,0.060476,0.644512,-1.049246,17.879971,31.891884,-35.438789,,,,,,,
1508184075.199530,-0.033148,-0.021034,3.129298,2.262227,-0.458425,-2.325351,-0.033135,0.021032,-0.999230,0.069679,0.355662,-0.930794,17.879971,31.891884,-35.438789,,,,,,,
1508184075.219543,-0.037704,0.022092,3.084517,1.949564,-0.006725,-2.307142,-0.037685,-0.022090,-0.999045,-0.315281,-0.006123,-0.431939,14.496966,30.040300,-38.472218,,,,,,,
1508184075.239551,-0.028075,0.060310,3.039068,1.801210,0.530295,-2.359604,-0.028020,-0.060274,-0.997789,-0.201350,-0.028410,-0.275435,13.567961,29.424383,-39.278614,,,,,,,
1508184075.259558,-0.018596,0.099491,2.990152,1.990279,0.037486,-2.580787,-0.018503,-0.099327,-0.994883,0.023706,0.063423,-0.216543,12.558077,28.595158,-40.215729,,,,,,,
1508184075.279563,-0.017758,0.142693,2.936519,2.165623,-0.432040,-2.723392,-0.017576,-0.142209,-0.989681,0.126799,0.040296,-0.081120,10.624868,27.272884,-41.665276,,,,,,,
1508184075.299570,-0.019269,0.187763,2.882683,2.206657,-0.512026,-2.681743,-0.018929,-0.186661,-0.982242,0.131707,0.072144,0.061023,9.226100,26.293852,-42.616970,,,,,,,
1508184075.319569,-0.016024,0.231973,2.827713,2.094525,-0.308388,-2.757121,-0.015594,-0.229898,-0.973090,0.257034,0.124353,0.174124,7.417766,24.836813,-43.826969,,,,,,,
1508184075.339585,-0.006014,0.270109,2.773408,1.731959,-0.127650,-2.535547,-0.005795,-0.266837,-0.963724,0.405667,0.108176,0.245722,5.512166,23.045279,-45.069107,,,,,,,
1508184075.359593,0.002004,0.300950,2.726210,1.436835,-0.441633,-2.095721,0.001914,-0.296427,-0.955054,0.518212,0.142008,0.144171,4.277144,21.812931,-45.810429,,,,,,,
1508184075.379598,0.001055,0.326520,2.685651,1.198725,-0.726449,-1.866422,0.000999,-0.320749,-0.947164,0.589302,0.283731,0.170903,3.241679,20.980190,-46.281925,,,,,,,
1508184075.399605,0.002266,0.346597,2.646897,0.866495,-0.461283,-1.782577,0.002132,-0.339699,-0.940532,0.622929,0.306221,0.200252,1.525817,19.782917,-46.893513,,,,,,,
1508184075.419584,0.008340,0.359020,2.612925,0.486889,-0.178515,-1.443043,0.007809,-0.351357,-0.936209,0.709782,0.318780,0.201224,0.540668,19.135841,-47.182846,,,,,,,
1508184075.439619,0.015616,0.365162,2.589384,0.260303,0.001480,-0.866482,0.014586,-0.357101,-0.933952,0.770967,0.360412,0.182182,0.081836,18.853134,-47.299534,,,,,,,
1508184075.459625,0.019715,0.371961,2.577480,0.437481,-0.046387,-0.389284,0.018366,-0.363443,-0.931435,0.794012,0.472239,0.157235,-0.269497,18.494526,-47.440208,,,,,,,
1508184075.479622,0.019278,0.382383,2.574262,0.538464,-0.090910,0.022878,0.017885,-0.373132,-0.927606,0.759642,0.403299,0.222726,-0.396695,18.147896,-47.572998,,,,,,,
1508184075.499610,0.015682,0.390650,2.580818,0.288200,-0.002269,0.473892,0.014500,-0.380790,-0.924548,0.621059,0.306022,0.285296,-0.449893,17.661243,-47.755325,,,,,,,
1508184075.519646,0.013412,0.391635,2.594779,-0.096973,0.245546,0.714770,0.012396,-0.381700,-0.924203,0.509943,0.294054,0.334954,-0.137117,17.444576,-47.836819,,,,,,,
1508184075.539654,0.015170,0.386765,2.611282,-0.326457,0.493654,0.789184,0.014049,-0.377194,-0.926028,0.422765,0.291379,0.346712,-0.015957,17.468052,-47.828445,,,,,,,
1508184075.559661,0.019827,0.378845,2.630367,-0.444023,0.611623,0.940043,0.018420,-0.369848,-0.928910,0.351346,0.252264,0.334107,1.054075,17.883575,-47.662983,,,,,,,
1508184075.579667,0.022723,0.369631,2.652338,-0.522569,0.507047,1.041850,0.021187,-0.361272,-0.932220,0.303383,0.202886,0.297683,2.183356,18.386219,-47.432827,,,,,,,
1508184075.599674,0.025366,0.357715,2.675959,-0.682003,0.597463,1.125963,0.023758,-0.350135,-0.936398,0.209839,0.162925,0.254498,2.399699,18.498192,-47.378815,,,,,,,
1508184075.619682,0.030935,0.342406,2.702097,-0.862013,0.813505,1.248788,0.029134,-0.335755,-0.941499,0.119593,0.146073,0.224702,3.870799,19.335808,-46.945042,,,,,,,
1508184075.639688,0.040735,0.326098,2.729739,-0.830376,1.003051,1.278005,0.038577,-0.320349,-0.946514,0.091183,0.202490,0.125240,5.505459,20.193829,-46.417591,,,,,,,
1508184075.659695,0.053200,0.313359,2.756963,-0.599663,1.111708,1.247466,0.050585,-0.308256,-0.949958,0.097364,0.200468,0.002478,5.867659,20.350040,-46.304859,,,,,,,
1508184075.679695,0.069402,0.307438,2.783957,-0.246874,1.270255,1.289687,0.066095,-0.302618,-0.950817,0.084067,0.185354,-0.081028,8.160790,20.940775,-45.690029,,,,,,,
1508184075.699708,0.085756,0.309284,2.813479,0.100689,1.224978,1.515072,0.081587,-0.304376,-0.949051,0.091646,0.112787,-0.050918,10.303379,20.800674,-45.319595,,,,,,,
1508184075.719715,0.094460,0.313565,2.851234,-0.028115,0.830922,2.024178,0.089721,-0.308452,-0.946999,0.049394,-0.167103,0.028283,12.001431,20.350277,-45.105713,,,,,,,
1508184075.739723,0.088282,0.312243,2.899906,-0.502367,0.215676,2.387468,0.083904,-0.307194,-0.947941,-0.061809,-0.323849,0.063175,13.110263,20.014288,-44.947105,,,,,,,
1508184075.759729,0.074840,0.293008,2.949709,-1.606924,0.090640,2.194977,0.071583,-0.288833,-0.954700,-0.156056,-0.501816,-0.034863,14.453594,20.061182,-44.512199,,,,,,,
1508184075.779736,0.064166,0.246534,2.996782,-3.021852,0.034829,2.048632,0.062183,-0.244044,-0.967768,-0.162846,-0.643361,-0.177022,15.433095,21.292166,-43.602257,,,,,,,
1508184075.799744,0.042803,0.165858,3.043136,-4.969977,-1.190794,2.062536,0.042203,-0.165098,-0.985374,-0.002393,-0.908251,-0.457925,16.021336,23.025703,-42.495026,,,,,,,
1508184075.819749,-0.007220,0.031598,3.085262,-7.787980,-2.651238,1.887498,-0.007217,-0.031592,-0.999475,0.032745,-0.881051,-0.564109,15.592325,28.077324,-39.512486,,,,,,,
1508184075.839756,-0.018637,-0.117084,3.121515,-6.282877,0.916648,2.021229,-0.018509,0.116817,-0.992981,-0.753372,0.605519,-0.797317,15.592407,33.317966,-35.206295,,,,,,,
1508184075.859765,0.002558,-0.169052,-3.125691,0.120150,0.241452,1.671139,0.002522,0.168247,-0.985742,-0.602665,1.359508,-2.307303,17.128536,35.371731,-32.375099,,,,,,,
1508184075.879761,-0.005720,-0.100569,-3.098521,4.581911,-1.047331,1.037104,-0.005691,0.100399,-0.994931,0.024017,0.870227,-2.094531,18.399323,33.451828,-33.691738,,,,,,,
1508184075.899778,-0.025628,-0.004343,-3.083596,4.825721,-0.745062,0.601752,-0.025625,0.004343,-0.999662,-0.081279,0.331503,-1.906130,18.200394,30.742388,-36.281464,,,,,,,
1508184075.919784,-0.024015,0.085933,-3.069036,4.386910,0.648528,0.524291,-0.023924,-0.085827,-0.996023,-0.629091,0.089291,-1.111536,18.134808,26.929096,-39.225578,,,,,,,
1508184075.939791,-0.003771,0.175158,-3.061723,4.618930,1.093294,0.212704,-0.003713,-0.174263,-0.984692,-0.312830,0.184273,-0.888919,19.232086,22.260841,-41.560497,,,,,,,
1508184075.959775,0.009505,0.275336,-3.059025,5.230646,0.387078,0.119056,0.009146,-0.271870,-0.962290,-0.179373,0.340138,-0.576711,19.483624,21.275402,-41.957584,,,,,,,
1508184075.979805,0.010417,0.384102,-3.058173,5.499358,-0.045424,0.094204,0.009658,-0.374727,-0.927085,-0.156280,0.400529,-0.215829,20.210091,14.539246,-44.416840,,,,,,,
1508184075.999813,0.010592,0.492881,-3.058621,5.366975,0.093309,-0.015405,0.009331,-0.473166,-0.880924,-0.195397,0.517950,0.091449,20.198734,8.308023,-45.996536,,,,,,,
1508184076.019804,0.019030,0.596524,-3.061404,5.076774,0.489719,-0.050793,0.015743,-0.561770,-0.827143,-0.151881,0.644687,0.374293,20.219656,7.072054,-46.193558,,,,,,,
1508184076.039826,0.033670,0.694289,-3.067868,4.757332,0.531614,-0.186581,0.025871,-0.639839,-0.768073,-0.062813,0.791161,0.546836,20.787588,-0.018799,-46.481922,,,,,,,
1508184076.059831,0.048689,0.783080,-3.077207,4.222028,0.357941,-0.099423,0.034495,-0.705466,-0.707904,0.017721,0.821891,0.717334,21.369295,-5.288425,-45.913826,,,,,,,
1508184076.079832,0.056702,0.857931,-3.083551,3.434623,0.037329,-0.012078,0.037064,-0.756491,-0.652953,0.078674,0.861075,0.823104,21.454227,-6.245758,-45.753685,,,,,,,
1508184076.099848,0.061961,0.915979,-3.092743,2.618034,-0.112310,-0.189500,0.037711,-0.793159,-0.607846,0.082375,0.969428,0.931775,21.584642,-11.029171,-44.778946,,,,,,,
1508184076.119753,0.068300,0.958672,-3.102190,1.878858,-0.034650,-0.046121,0.039215,-0.818429,-0.573267,0.002121,0.957330,0.991907,21.537029,-13.636213,-44.078377,,,,,,,
1508184076.139750,0.066660,0.988067,-3.101073,1.220480,-0.025395,0.202687,0.036656,-0.834964,-0.549082,-0.019185,0.992282,1.001536,21.483843,-15.094343,-43.626812,,,,,,,
1508184076.159782,0.064016,1.005083,-3.096028,0.617403,0.151653,0.168583,0.034290,-0.844206,-0.534921,-0.037174,0.987990,0.977425,21.446917,-15.636455,-43.453705,,,,,,,
1508184076.179788,0.064999,1.010168,-3.093797,0.037933,0.136198,-0.020560,0.034537,-0.846921,-0.530596,-0.038519,0.891965,0.865755,21.539272,-16.436037,-43.111595,,,,,,,
1508184076.199771,0.076699,1.003795,-3.101333,-0.506173,0.338273,-0.325912,0.041155,-0.843516,-0.535526,-0.079729,0.792566,0.752780,21.773455,-16.228001,-43.072754,,,,,,,
1508184076.219803,0.097247,0.985997,-3.116327,-1.074389,0.431588,-0.575287,0.053599,-0.833823,-0.549423,-0.075602,0.708945,0.719879,21.982161,-15.903069,-43.087936,,,,,,,
1508184076.239809,0.121837,0.955155,-3.133795,-1.716079,0.536397,-0.703215,0.070185,-0.816403,-0.573201,-0.038462,0.592343,0.609700,22.832031,-14.009075,-43.302860,,,,,,,
1508184076.259812,0.146206,0.912527,3.133304,-2.209682,0.571797,-0.765204,0.089123,-0.791052,-0.605222,-0.022870,0.513556,0.463682,23.338778,-12.543039,-43.481800,,,,,,,
1508184076.279823,0.164941,0.863279,3.120720,-2.435943,0.363083,-0.772670,0.106718,-0.759978,-0.641128,0.001940,0.438094,0.266235,23.987181,-10.223215,-43.735504,,,,,,,
1508184076.299831,0.174140,0.813216,3.111116,-2.392828,-0.077983,-0.748179,0.119059,-0.726501,-0.676773,-0.011866,0.408950,0.142273,24.430378,-7.109631,-44.105591,,,,,,,
1508184076.319829,0.178646,0.762258,3.099854,-2.480861,-0.135202,-0.889101,0.128525,-0.690556,-0.711768,-0.015732,0.279118,0.073356,24.402601,-5.224854,-44.383636,,,,,,,
1508184076.339844,0.184790,0.708943,3.089640,-2.603934,-0.006502,-0.776781,0.139468,-0.651032,-0.746127,-0.031405,0.091294,0.019992,24.371426,-2.573391,-44.632999,,,,,,,
1508184076.359851,0.181022,0.653468,3.088230,-2.772995,-0.385252,-0.458735,0.142944,-0.607944,-0.781007,0.071396,-0.045758,-0.144836,24.262756,0.805702,-44.758942,,,,,,,
1508184076.379857,0.168453,0.597368,3.090980,-2.755687,-0.661424,-0.322522,0.138623,-0.562468,-0.815116,0.032291,-0.086137,-0.235376,24.173851,1.482328,-44.789742,,,,,,,
1508184076.399865,0.149567,0.540542,3.097223,-2.958750,-0.858886,-0.095579,0.127766,-0.514601,-0.847857,0.076168,-0.339693,-0.313947,23.322422,5.466478,-44.931900,,,,,,,
1508184076.419871,0.122492,0.475680,3.109050,-3.502550,-1.227839,0.163959,0.108621,-0.457943,-0.882321,0.102149,-0.653370,-0.575809,22.265575,8.955263,-44.908134,,,,,,,
1508184076.439880,0.085367,0.395224,3.123231,-4.493891,-1.737941,0.215819,0.078691,-0.385015,-0.919549,0.138304,-0.802286,-0.651725,21.377621,11.380689,-44.790298,,,,,,,
1508184076.459882,0.036822,0.279897,3.133289,-6.758187,-2.649908,0.030279,0.035381,-0.276256,-0.960433,0.254246,-1.110691,-0.769853,19.790224,15.532513,-44.269417,,,,,,,
1508184076.479890,-0.020387,0.105963,3.132664,-9.597648,-2.528681,-0.041858,-0.020271,-0.105765,-0.994184,-0.230125,-0.207605,-0.783129,16.758173,23.754456,-41.804100,,,,,,,
1508184076.499900,-0.035139,-0.064164,3.137072,-7.162509,0.195176,0.690948,-0.035060,0.064120,-0.997326,-0.454518,0.692395,-1.275242,15.743265,29.376352,-38.495102,,,,,,,
1508184076.519899,-0.025413,-0.123615,-3.135406,-0.029820,0.263774,0.651547,-0.025217,0.123300,-0.992049,-0.113470,1.358008,-2.331651,16.114027,33.123249,-35.155113,,,,,,,
1508184076.539894,-0.034561,-0.055883,-3.124114,4.731747,-0.875274,0.212381,-0.034500,0.055854,-0.997843,0.177597,0.129083,-1.739874,16.717129,32.339100,-35.600750,,,,,,,
1508184076.559920,-0.048499,0.045881,-3.122168,5.102322,-0.339823,-0.186995,-0.048429,-0.045865,-0.997773,-0.038043,-0.199618,-1.244994,16.088320,28.618992,-38.920593,,,,,,,
1508184076.579928,-0.040068,0.137400,-3.120678,4.208494,0.873673,-0.173000,-0.039679,-0.136968,-0.989780,-0.217279,-0.316936,-0.555416,15.968146,26.654573,-40.339130,,,,,,,
1508184076.599934,-0.014149,0.213627,-3.124964,3.656454,1.355670,-0.359781,-0.013827,-0.212006,-0.977171,0.023532,-0.076202,-0.298754,16.954391,21.563103,-42.898422,,,,,,,
1508184076.619942,0.011097,0.287373,-3.132070,3.758178,0.977474,-0.353306,0.010642,-0.283434,-0.958933,0.065927,0.116625,-0.012228,17.700800,19.283190,-43.675320,,,,,,,
1508184076.639924,0.027196,0.365691,-3.140465,3.985553,0.520283,-0.278603,0.025395,-0.357594,-0.933532,0.033062,0.223607,0.255050,18.386168,16.050831,-44.687950,,,,,,,
1508184076.659955,0.039213,0.444003,3.135177,3.820213,0.451953,-0.180454,0.035402,-0.429558,-0.902345,0.030562,0.269097,0.427858,18.858662,11.680083,-45.832523,,,,,,,
1508184076.679959,0.052345,0.514436,3.129146,3.354838,0.548768,-0.061017,0.045549,-0.492044,-0.869378,0.042601,0.325159,0.468469,18.952316,10.819675,-46.004761,,,,,,,
1508184076.699969,0.064879,0.576126,3.123843,2.934654,0.434885,-0.056918,0.054368,-0.544780,-0.836815,0.071624,0.443934,0.589562,19.651955,6.115879,-46.573494,,,,,,,
1508184076.719975,0.074103,0.628634,3.117848,2.445328,0.180411,-0.053927,0.059882,-0.588041,-0.806612,0.081048,0.474836,0.700258,20.086958,2.862560,-46.701317,,,,,,,
1508184076.739982,0.078503,0.670348,3.113379,1.884071,0.087721,0.023546,0.061453,-0.621259,-0.781192,0.055262,0.505719,0.721774,20.171427,1.260826,-46.735611,,,,,,,
1508184076.759990,0.081472,0.702438,3.113614,1.454125,0.192961,0.186553,0.062116,-0.646081,-0.760737,-0.029432,0.616387,0.768077,20.268719,-0.466478,-46.708191,,,,,,,
1508184076.779996,0.084783,0.727771,3.114690,1.132819,0.188966,0.094084,0.063228,-0.665207,-0.743977,-0.008754,0.614609,0.764348,20.490545,-2.160492,-46.563538,,,,,,,
1508184076.800003,0.088990,0.743314,3.112623,0.522701,0.088218,-0.054346,0.065431,-0.676731,-0.733317,0.002333,0.575337,0.722132,20.612148,-2.880007,-46.470833,,,,,,,
1508184076.820010,0.091603,0.745457,3.110747,-0.110754,0.097933,-0.039084,0.067214,-0.678308,-0.731697,-0.055297,0.524164,0.678200,20.690718,-3.264959,-46.410427,,,,,,,
1508184076.840017,0.094155,0.737306,3.112457,-0.568828,0.226761,0.051094,0.069598,-0.672296,-0.737003,-0.105197,0.513849,0.621967,20.849651,-2.991764,-46.357685,,,,,,,
1508184076.860023,0.097348,0.722091,3.114296,-0.861275,0.199386,-0.073047,0.072937,-0.660955,-0.746872,-0.091248,0.513845,0.584580,21.008091,-2.550270,-46.312523,,,,,,,
1508184076.880029,0.102249,0.701103,3.110912,-1.149648,0.099832,-0.326233,0.077996,-0.645061,-0.760140,-0.100869,0.390483,0.456277,21.183508,-1.677591,-46.272434,,,,,,,
1508184076.900032,0.109318,0.671042,3.103652,-1.682126,0.152471,-0.481211,0.085444,-0.621802,-0.778499,-0.067576,0.289176,0.390224,21.320803,-0.001612,-46.239777,,,,,,,
1508184076.920044,0.117963,0.631253,3.096941,-2.038769,0.254830,-0.484560,0.095009,-0.590157,-0.801678,-0.067681,0.335412,0.281094,21.499107,1.923599,-46.117043,,,,,,,
1508184076.940052,0.125184,0.589187,3.091315,-2.038504,0.177046,-0.473836,0.103806,-0.555686,-0.824887,-0.012223,0.298682,0.197140,21.639688,3.502108,-45.958160,,,,,,,
1508184076.960058,0.129783,0.550353,3.087293,-1.802494,0.075606,-0.381906,0.110309,-0.522988,-0.845172,-0.025836,0.241921,0.117709,21.762318,6.017178,-45.638672,,,,,,,
1508184076.980064,0.130663,0.517816,3.085555,-1.498691,-0.076058,-0.218923,0.113211,-0.494983,-0.861496,-0.008398,0.141803,0.026168,21.766371,7.304848,-45.448406,,,,,,,
1508184077.000072,0.127346,0.487960,3.086607,-1.516384,-0.135905,-0.119942,0.112180,-0.468825,-0.876139,0.024051,0.075133,-0.022818,21.690851,8.404114,-45.294273,,,,,,,
1508184077.020079,0.125152,0.455730,3.088877,-1.655662,-0.026245,-0.072378,0.112086,-0.440118,-0.890917,0.079732,-0.069693,-0.138884,21.509813,10.575062,-44.924263,,,,,,,
1508184077.040074,0.122297,0.421990,3.093314,-1.711862,-0.080775,0.036151,0.111291,-0.409577,-0.905462,0.127768,-0.186538,-0.218821,21.470417,12.098351,-44.557205,,,,,,,
1508184077.060093,0.113872,0.389217,3.101714,-1.658860,-0.376330,0.272852,0.105127,-0.379464,-0.919215,0.117712,-0.282188,-0.161169,21.392776,13.197159,-44.281796,,,,,,,
1508184077.080099,0.097754,0.352510,3.112913,-2.126289,-0.724685,0.343299,0.091597,-0.345255,-0.934028,0.218828,-0.561331,-0.240517,20.976221,14.962633,-43.918232,,,,,,,
1508184077.100102,0.076650,0.295724,3.125380,-3.376640,-0.918231,0.336380,0.073251,-0.291432,-0.953783,0.273230,-0.686503,-0.299681,20.544001,16.438168,-43.593853,,,,,,,
1508184077.120088,0.050833,0.209003,3.138243,-5.047691,-1.404634,0.341489,0.049705,-0.207484,-0.976975,0.355874,-0.797826,-0.479263,19.855537,19.381008,-42.694584,,,,,,,
1508184077.140121,0.008480,0.078536,-3.138250,-7.504095,-2.289621,0.005353,0.008454,-0.078456,-0.996882,0.489013,-0.497533,-0.582403,18.218245,25.130917,-40.363670,,,,,,,
1508184077.160125,-0.022245,-0.077130,-3.134237,-7.420721,-0.896413,0.586480,-0.022177,0.077053,-0.996780,0.138922,0.624607,-1.065247,17.760990,26.631327,-39.598141,,,,,,,
1508184077.180134,-0.020796,-0.181814,-3.113439,-3.449054,0.218237,1.480089,-0.020452,0.180814,-0.983305,0.145620,0.905016,-1.417223,16.962706,34.421417,-33.468285,,,,,,,
1508184077.200141,-0.015300,-0.177964,-3.077403,2.216426,-0.417516,1.740971,-0.015058,0.177026,-0.984091,0.498380,0.908560,-1.517298,18.468184,35.263210,-31.750992,,,,,,,
1508184077.220128,-0.026459,-0.102708,-3.051162,4.155939,-0.738147,0.962567,-0.026317,0.102527,-0.994382,0.412929,0.452969,-1.248965,18.950634,33.351902,-33.484585,,,,,,,
1508184077.240155,-0.027674,-0.031074,-3.028916,3.283245,0.373837,1.131565,-0.027657,0.031069,-0.999135,-0.112251,-0.270723,-0.582805,19.143167,30.198713,-36.252865,,,,,,,
1508184077.260161,-0.007937,0.020912,-3.003220,2.296509,1.245264,1.222033,-0.007935,-0.020910,-0.999750,-0.004455,-0.141397,-0.418387,20.556747,26.826508,-38.084797,,,,,,,
1508184077.280150,0.016834,0.063209,-2.979031,2.091115,1.236774,1.231907,0.016800,-0.063167,-0.997862,0.096176,0.073634,-0.298800,21.773153,25.182747,-38.528595,,,,,,,
1508184077.300167,0.032748,0.109324,-2.956391,2.408313,0.629673,1.150904,0.032547,-0.109106,-0.993497,0.002213,0.171423,-0.154635,22.931108,23.549088,-38.888279,,,,,,,
1508184077.320163,0.038210,0.162541,-2.934389,2.724952,0.379121,1.222543,0.037697,-0.161827,-0.986099,-0.184243,0.204338,0.181976,24.430786,19.812250,-40.041290,,,,,,,
1508184077.340184,0.042245,0.218899,-2.911304,2.750414,0.468567,1.236155,0.041225,-0.217155,-0.975266,-0.237773,0.224541,0.350205,25.209898,16.958881,-40.860134,,,,,,,
1508184077.360197,0.047469,0.272231,-2.889454,2.518690,0.555116,1.132709,0.045703,-0.268881,-0.962088,-0.253055,0.275534,0.417746,25.606203,15.527449,-41.181477,,,,,,,
1508184077.380203,0.052639,0.319877,-2.869686,2.207107,0.504276,1.025983,0.049946,-0.314450,-0.947959,-0.293979,0.316495,0.552299,26.746273,11.560144,-41.757553,,,,,,,
1508184077.400210,0.054316,0.361221,-2.851886,1.914013,0.322471,0.892357,0.050785,-0.353416,-0.934087,-0.333348,0.363579,0.613332,27.307964,9.277143,-41.963116,,,,,,,
1508184077.420210,0.054121,0.396951,-2.837763,1.642794,0.231399,0.657162,0.049888,-0.386609,-0.920894,-0.350670,0.378308,0.642848,27.511738,8.248881,-42.044662,,,,,,,
1508184077.440223,0.054937,0.425890,-2.827756,1.281578,0.242495,0.480266,0.050004,-0.413131,-0.909298,-0.351365,0.343918,0.702724,27.949497,5.707971,-42.177460,,,,,,,
1508184077.460231,0.056509,0.447619,-2.819946,0.936681,0.247042,0.380226,0.050914,-0.432820,-0.900041,-0.353145,0.360356,0.692888,28.136637,4.762945,-42.170341,,,,,,,
1508184077.480238,0.056887,0.462231,-2.814587,0.572866,0.042977,0.195790,0.050890,-0.445946,-0.893612,-0.342027,0.343774,0.658855,28.356293,3.804363,-42.120552,,,,,,,
1508184077.500245,0.056836,0.468273,-2.813962,0.142045,0.017969,-0.029580,0.050690,-0.451346,-0.890908,-0.356446,0.327963,0.587655,28.405533,3.223946,-42.135796,,,,,,,
1508184077.520248,0.059517,0.466480,-2.817408,-0.202418,0.122858,-0.234507,0.053127,-0.449745,-0.891576,-0.345104,0.343666,0.520100,28.413313,3.227057,-42.130310,,,,,,,
1508184077.540258,0.067912,0.459557,-2.825034,-0.376983,0.288460,-0.458568,0.060819,-0.443551,-0.894183,-0.286131,0.360665,0.407718,28.525364,3.563608,-42.027348,,,,,,,
1508184077.560265,0.078374,0.448860,-2.838682,-0.560583,0.177241,-0.751116,0.070538,-0.433939,-0.898177,-0.186719,0.306253,0.321181,28.741625,4.392437,-41.800941,,,,,,,
1508184077.580265,0.088658,0.434926,-2.855575,-0.634613,0.143354,-0.842271,0.080298,-0.421343,-0.903339,-0.196097,0.300478,0.235279,28.761744,4.617620,-41.762821,,,,,,,
1508184077.600278,0.097298,0.422201,-2.873486,-0.506962,-0.000416,-0.876536,0.088614,-0.409769,-0.907875,-0.206199,0.216013,0.211479,28.796322,6.109504,-41.546829,,,,,,,
1508184077.620285,0.101509,0.411410,-2.890745,-0.441874,-0.241282,-0.822976,0.092880,-0.399902,-0.911840,-0.219680,0.152237,0.207296,28.596539,7.231112,-41.504730,,,,,,,
1508184077.640294,0.100892,0.399588,-2.908211,-0.590193,-0.449909,-0.883817,0.092786,-0.389039,-0.916537,-0.250348,0.042603,0.191836,28.516237,7.440421,-41.522980,,,,,,,
1508184077.660300,0.095667,0.377953,-2.926444,-1.305651,-0.688162,-0.973660,0.088779,-0.369019,-0.925172,-0.225071,-0.144867,0.118837,27.759109,8.935924,-41.740562,,,,,,,
1508184077.680304,0.082668,0.337447,-2.942093,-2.363349,-1.126999,-0.860938,0.077917,-0.331079,-0.940381,-0.267019,-0.255285,0.002575,27.186722,10.156470,-41.838039,,,,,,,
1508184077.700291,0.057902,0.274953,-2.955730,-3.523118,-1.607022,-0.913886,0.055696,-0.271502,-0.960825,-0.309038,-0.237333,-0.134893,26.421858,11.825884,-41.889465,,,,,,,
1508184077.720308,0.026285,0.184425,-2.973807,-5.151820,-1.829864,-1.138687,0.025836,-0.183381,-0.982702,-0.323352,-0.305297,-0.275476,24.097795,16.782404,-41.597363,,,,,,,
1508184077.740315,-0.002629,0.065361,-2.992583,-6.203188,-1.345451,-0.873016,-0.002624,-0.065315,-0.997861,-0.398148,0.191718,-0.538333,21.812723,22.993366,-39.852272,,,,,,,
1508184077.760319,-0.017099,-0.050714,-3.009088,-5.282921,-0.451203,-0.713935,-0.017076,0.050692,-0.998568,-0.302153,0.642484,-0.956617,20.875246,26.845936,-37.897408,,,,,,,
1508184077.780341,-0.024242,-0.124319,-3.026891,-2.532390,-0.114866,-0.920274,-0.024053,0.123999,-0.991991,-0.125987,0.814874,-1.209959,20.123520,30.786072,-35.212997,,,,,,,
1508184077.800322,-0.028946,-0.128823,-3.052725,1.063095,-0.090044,-1.532190,-0.028702,0.128467,-0.991298,-0.152115,0.751996,-1.173695,19.179577,32.695572,-33.997601,,,,,,,
1508184077.820347,-0.035260,-0.081562,-3.088254,2.677653,-0.135411,-1.953932,-0.035135,0.081472,-0.996056,-0.095709,0.479777,-1.026084,18.304539,32.296902,-34.850357,,,,,,,
1508184077.840362,-0.037105,-0.028606,-3.126241,2.415666,0.127838,-1.989542,-0.037081,0.028602,-0.998903,-0.031522,-0.072303,-0.472594,16.988068,31.101614,-36.562122,,,,,,,
1508184077.860368,-0.034362,0.014892,3.119448,1.954767,0.107568,-1.916394,-0.034351,-0.014892,-0.999299,-0.011486,-0.132707,-0.276794,15.611797,29.766741,-38.247955,,,,,,,
1508184077.880351,-0.033582,0.053562,3.083866,1.880799,-0.106712,-1.822596,-0.033528,-0.053536,-0.998003,0.046116,-0.049094,-0.138868,14.815243,29.093157,-39.074165,,,,,,,
1508184077.900382,-0.035473,0.094738,3.046340,2.060465,-0.287454,-2.019508,-0.035306,-0.094596,-0.994889,0.157285,0.007041,0.020601,13.647783,28.108616,-40.203697,,,,,,,
1508184077.920389,-0.037235,0.137972,3.007003,2.067081,-0.334361,-2.001772,-0.036872,-0.137535,-0.989810,0.275215,-0.020623,0.121372,11.959111,26.632042,-41.718193,,,,,,,
1508184077.940373,-0.039622,0.177378,2.970058,1.767371,-0.460356,-1.815249,-0.038990,-0.176449,-0.983537,0.338856,-0.041965,0.234590,10.959072,25.699137,-42.569317,,,,,,,
1508184077.960403,-0.042908,0.209814,2.938277,1.459196,-0.481141,-1.503357,-0.041954,-0.208278,-0.977170,0.343956,0.032100,0.268658,9.672793,24.583672,-43.528999,,,,,,,
1508184077.980409,-0.048595,0.238855,2.910989,1.357362,-0.639032,-1.371968,-0.047196,-0.236591,-0.970462,0.355790,0.112628,0.325611,8.212685,23.331747,-44.507019,,,,,,,
1508184078.000401,-0.052984,0.265561,2.883330,1.176974,-0.480176,-1.417855,-0.051103,-0.262450,-0.963591,0.479753,0.133178,0.319625,7.033293,22.368626,-45.198128,,,,,,,
1508184078.020425,-0.053253,0.286152,2.856645,0.811137,-0.348311,-1.259548,-0.051064,-0.282263,-0.957977,0.535607,0.160986,0.321655,6.281267,21.761389,-45.603519,,,,,,,
1508184078.040429,-0.053463,0.298897,2.834737,0.464231,-0.317920,-0.965429,-0.051068,-0.294466,-0.954296,0.625226,0.208315,0.279095,5.840353,21.444443,-45.811783,,,,,,,
1508184078.060429,-0.054713,0.307511,2.819739,0.372175,-0.263245,-0.595080,-0.052120,-0.302687,-0.951664,0.645321,0.242034,0.251301,5.081064,21.029131,-46.093948,,,,,,,
1508184078.080417,-0.057201,0.315339,2.812708,0.389342,-0.228847,-0.219187,-0.054350,-0.310139,-0.949136,0.647078,0.267628,0.199289,4.304693,20.590471,-46.370201,,,,,,,
1508184078.100436,-0.060490,0.322397,2.810991,0.275109,-0.131157,-0.048844,-0.057338,-0.316841,-0.946744,0.592891,0.189689,0.224591,3.962415,20.172087,-46.584114,,,,,,,
1508184078.120457,-0.061132,0.323704,2.813004,-0.050103,0.083658,0.173275,-0.057921,-0.318081,-0.946293,0.508101,0.174556,0.242161,3.907890,20.035921,-46.647438,,,,,,,
1508184078.140466,-0.057440,0.319519,2.817854,-0.257112,0.362593,0.277081,-0.054503,-0.314110,-0.947821,0.466445,0.183800,0.241522,4.096339,20.096237,-46.605309,,,,,,,
1508184078.160473,-0.049996,0.313405,2.825457,-0.283872,0.551872,0.447097,-0.047541,-0.308299,-0.950101,0.429408,0.175380,0.216519,4.433404,20.254959,-46.505646,,,,,,,
1508184078.180455,-0.043241,0.308603,2.836049,-0.174190,0.451565,0.520978,-0.041186,-0.303728,-0.951868,0.359743,0.153200,0.206842,5.264703,20.516674,-46.303810,,,,,,,
1508184078.200486,-0.036446,0.303752,2.847009,-0.288868,0.567605,0.570564,-0.034770,-0.299103,-0.953587,0.300380,0.087402,0.207463,5.745411,20.599621,-46.209732,,,,,,,
1508184078.220493,-0.026904,0.294380,2.861644,-0.529468,0.749388,0.786700,-0.025744,-0.290147,-0.956636,0.198565,0.031694,0.161256,6.953247,20.936333,-45.891346,,,,,,,
1508184078.240498,-0.015916,0.282883,2.877700,-0.536131,0.791008,0.749847,-0.015282,-0.279125,-0.960133,0.173989,0.115963,0.091542,7.728642,21.229996,-45.631664,,,,,,,
1508184078.260508,-0.003617,0.274396,2.891924,-0.336420,0.823097,0.658596,-0.003482,-0.270965,-0.962583,0.136569,0.125961,0.057935,8.508033,21.501801,-45.364956,,,,,,,
1508184078.280514,0.010601,0.269906,2.904688,-0.186166,0.957419,0.588292,0.010217,-0.266641,-0.963742,0.070746,0.034951,0.005597,10.062017,21.748009,-44.927425,,,,,,,
1508184078.300507,0.029949,0.267295,2.916945,-0.091658,1.208781,0.593106,0.028881,-0.264123,-0.964056,0.063069,0.048730,0.002112,10.947358,21.774780,-44.706905,,,,,,,
1508184078.320528,0.052466,0.268087,2.929249,0.096458,1.306689,0.616070,0.050568,-0.264887,-0.962953,0.071548,0.065378,0.017015,11.947801,21.734367,-44.469776,,,,,,,
1508184078.340535,0.072961,0.273278,2.943238,0.271792,1.128513,0.735816,0.070191,-0.269889,-0.960330,0.091018,0.002815,0.013903,14.046692,21.330523,-44.049889,,,,,,,
1508184078.360539,0.085721,0.279296,2.961759,0.134869,0.728466,1.045616,0.082298,-0.275679,-0.957720,0.045967,-0.169161,0.040072,14.987221,20.974865,-43.910492,,,,,,,
1508184078.380549,0.088882,0.277371,2.988493,-0.447413,0.434992,1.386194,0.085372,-0.273828,-0.957982,-0.030288,-0.230246,0.069860,16.043465,20.579342,-43.724037,,,,,,,
1508184078.400555,0.087169,0.261162,3.021269,-1.307746,0.278258,1.572518,0.084107,-0.258203,-0.962423,-0.083649,-0.424170,-0.018275,16.522470,20.518068,-43.574192,,,,,,,
1508184078.420536,0.077387,0.221335,3.060602,-2.669815,-0.203401,1.830039,0.075424,-0.219532,-0.972685,-0.072998,-0.573375,-0.156404,17.847565,21.300409,-42.666737,,,,,,,
1508184078.440569,0.057064,0.149101,3.105267,-4.523616,-0.960636,1.989561,0.056400,-0.148549,-0.987295,-0.096012,-0.706462,-0.299951,18.444920,23.047256,-41.488579,,,,,,,
1508184078.460573,0.019128,0.026666,-3.137652,-7.250822,-1.905053,1.575584,0.019120,-0.026663,-0.999462,-0.125428,-0.446405,-0.358464,18.316938,27.397034,-38.814758,,,,,,,
1508184078.480555,0.000026,-0.123292,-3.108873,-7.215145,-0.546291,1.275415,0.000026,0.122979,-0.992409,-0.525553,0.682639,-0.943962,18.093180,31.210255,-35.933968,,,,,,,
1508184078.500579,0.002804,-0.221909,-3.086769,-3.022241,0.158288,1.053056,0.002735,0.220092,-0.975475,-0.432316,0.905274,-1.422154,18.433599,34.524570,-32.572231,,,,,,,
1508184078.520596,0.009339,-0.205501,-3.062684,2.955439,-0.161990,1.191835,0.009142,0.204057,-0.978916,-0.148272,1.185683,-1.882381,19.715385,35.901459,-30.250324,,,,,,,
1508184078.540593,0.001435,-0.106321,-3.045489,5.539406,-0.665436,0.662981,0.001427,0.106121,-0.994352,-0.195839,0.340107,-1.502703,20.122360,33.720268,-32.414925,,,,,,,
1508184078.560609,-0.004791,-0.003415,-3.034754,4.878913,-0.005610,0.521686,-0.004791,0.003415,-0.999983,-0.317414,-0.007748,-1.193316,20.125639,30.751801,-35.241722,,,,,,,
1508184078.580616,0.003748,0.086793,-3.024621,4.355587,0.623224,0.413793,0.003734,-0.086684,-0.996229,-0.350154,0.079498,-0.784960,20.651045,25.046169,-39.229034,,,,,,,
1508184078.600595,0.015342,0.173606,-3.020884,4.396801,0.515077,0.155153,0.015110,-0.172736,-0.984852,-0.128697,0.195410,-0.563640,21.293671,21.449564,-40.977909,,,,,,,
1508184078.620631,0.019709,0.265370,-3.020257,4.698724,0.034693,0.098981,0.019018,-0.262267,-0.964808,-0.092413,0.310073,-0.290243,21.588190,18.615574,-42.191277,,,,,,,
1508184078.640637,0.017120,0.360462,-3.019986,4.720668,-0.147470,0.100540,0.016019,-0.352707,-0.935597,-0.066785,0.357010,0.020664,21.593119,13.460469,-44.104946,,,,,,,
1508184078.660646,0.016798,0.452164,-3.019760,4.483493,0.074181,0.088973,0.015110,-0.436913,-0.899377,-0.038440,0.419594,0.285500,21.545609,10.308422,-44.969067,,,,,,,
1508184078.680652,0.017918,0.536465,-3.017956,4.026948,0.071941,0.201310,0.015400,-0.511100,-0.859383,0.025173,0.423210,0.493096,21.634424,6.247490,-45.668522,,,,,,,
1508184078.700658,0.014205,0.610376,-3.014085,3.512973,-0.152732,0.219882,0.011640,-0.573176,-0.819350,0.059070,0.545237,0.677321,21.655350,1.674175,-46.053627,,,,,,,
1508184078.720646,0.007731,0.676219,-3.010199,3.178116,-0.242009,0.160649,0.006030,-0.625849,-0.779921,0.011106,0.663339,0.800780,21.535955,-0.757530,-46.133743,,,,,,,
1508184078.740673,0.001631,0.736264,-3.009039,2.874821,-0.259722,0.000122,0.001209,-0.671525,-0.740981,0.022946,0.696610,0.921554,21.300764,-3.719515,-46.099197,,,,,,,
1508184078.760679,-0.002181,0.786982,-3.010135,2.291365,-0.208369,-0.037506,-0.001540,-0.708226,-0.705984,0.046782,0.636189,0.980032,21.018810,-6.860535,-45.867592,,,,,,,
1508184078.780672,-0.007681,0.822907,-3.007815,1.498956,-0.171267,0.152352,-0.005224,-0.733126,-0.680073,0.038503,0.643267,1.029087,20.972370,-7.381968,-45.807854,,,,,,,
1508184078.800693,-0.014388,0.844036,-3.000904,0.816021,-0.013583,0.223086,-0.009560,-0.747331,-0.664384,-0.008873,0.755418,1.044175,20.710814,-9.656260,-45.502884,,,,,,,
1508184078.820699,-0.014982,0.854233,-2.997318,0.346218,0.141400,0.019660,-0.009840,-0.754067,-0.656723,-0.015566,0.773492,0.964066,20.712135,-10.538879,-45.305992,,,,,,,
1508184078.840707,-0.009043,0.853978,-3.001550,-0.248456,0.148415,-0.217780,-0.005941,-0.753900,-0.656962,0.011358,0.669031,0.904826,20.743128,-10.619350,-45.273010,,,,,,,
1508184078.860712,0.003211,0.841622,-3.010971,-0.818773,0.354416,-0.352561,0.002139,-0.745725,-0.666251,-0.046451,0.651258,0.851477,20.950207,-10.429396,-45.221786,,,,,,,
1508184078.880714,0.022506,0.820657,-3.023497,-1.157036,0.588098,-0.508178,0.015342,-0.731594,-0.681568,-0.003058,0.596981,0.640232,21.574305,-9.044991,-45.226440,,,,,,,
1508184078.900728,0.047757,0.792803,-3.039621,-1.514077,0.690701,-0.634155,0.033506,-0.712323,-0.701051,0.026461,0.510404,0.561052,21.574305,-9.044991,-45.226440,,,,,,,
1508184078.920710,0.068936,0.756857,-3.054533,-1.907127,0.431968,-0.643970,0.050077,-0.686640,-0.725271,0.063525,0.425287,0.419790,22.609869,-6.785192,-45.115944,,,,,,,
1508184078.940741,0.085347,0.715073,-3.067716,-2.081479,0.397944,-0.654009,0.064363,-0.655672,-0.752297,-0.027559,0.430193,0.266518,23.301357,-3.739523,-45.119354,,,,,,,
1508184078.960723,0.103114,0.673674,-3.080057,-1.952405,0.528946,-0.659204,0.080445,-0.623861,-0.777384,-0.019761,0.370947,0.218378,23.301357,-3.739523,-45.119354,,,,,,,
1508184078.980756,0.116967,0.634813,-3.090383,-1.866895,0.250803,-0.611516,0.093966,-0.593027,-0.799681,0.032911,0.285623,0.087004,24.087276,-0.057287,-44.860821,,,,,,,
1508184079.000762,0.123066,0.595994,-3.099618,-1.923643,-0.111340,-0.622216,0.101591,-0.561332,-0.821332,0.015596,0.158210,-0.083438,24.259871,2.402052,-44.703270,,,,,,,
1508184079.020756,0.129518,0.554459,-3.108490,-2.023051,0.278443,-0.563816,0.109806,-0.526483,-0.843065,-0.007771,0.108606,-0.148207,24.178629,3.959179,-44.636444,,,,,,,
1508184079.040776,0.135936,0.515476,-3.112281,-1.844270,0.105437,-0.366308,0.117909,-0.492949,-0.862032,0.086498,-0.033983,-0.245863,24.355598,5.989700,-44.312775,,,,,,,
1508184079.060783,0.132086,0.478621,-3.111451,-1.867701,-0.380805,-0.115056,0.116903,-0.460556,-0.879899,0.081721,-0.205658,-0.245071,24.301756,8.198097,-43.987602,,,,,,,
1508184079.080762,0.113325,0.433020,-3.105469,-2.636893,-0.989184,0.046825,0.102645,-0.419614,-0.901880,0.090821,-0.542376,-0.319189,23.915285,9.547785,-43.927124,,,,,,,
1508184079.100797,0.086692,0.364773,-3.095122,-3.975433,-1.241574,0.179445,0.080887,-0.356737,-0.930696,0.037857,-0.769880,-0.497496,23.046494,11.976995,-43.796165,,,,,,,
1508184079.120803,0.051612,0.263488,-3.085415,-5.885266,-1.864985,0.010780,0.049809,-0.260450,-0.964202,0.183239,-0.909976,-0.762223,21.595726,16.679325,-42.989746,,,,,,,
1508184079.140781,0.003811,0.104646,-3.085599,-9.286463,-2.383346,-0.300107,0.003790,-0.104455,-0.994522,0.201868,-0.849829,-0.903244,20.206589,20.933491,-41.787273,,,,,,,
1508184079.160817,-0.011701,-0.076598,-3.079128,-8.216584,0.036412,0.858256,-0.011666,0.076523,-0.997000,-0.305167,0.974380,-1.530863,18.586338,28.348822,-37.994549,,,,,,,
1508184079.180824,-0.004137,-0.167486,-3.060955,-1.808000,0.018863,0.840907,-0.004079,0.166704,-0.985999,0.171957,1.430937,-2.259927,19.383533,33.883377,-32.693863,,,,,,,
1508184079.200825,-0.014745,-0.128791,-3.052758,3.620433,-0.822511,0.080232,-0.014622,0.128436,-0.991610,0.236577,0.665403,-1.816709,19.593801,33.746796,-32.709785,,,,,,,
1508184079.220838,-0.031041,-0.041282,-3.052656,4.331997,-0.630621,-0.083029,-0.031009,0.041271,-0.998667,-0.178021,-0.312953,-1.191748,19.057529,31.164131,-35.472538,,,,,,,
1508184079.240820,-0.027638,0.036109,-3.050145,3.492800,0.606219,-0.029961,-0.027617,-0.036101,-0.998967,-0.284822,-0.297975,-0.752437,18.781506,27.322035,-38.645241,,,,,,,
1508184079.260845,-0.008146,0.096350,-3.054215,2.823829,1.044830,-0.347180,-0.008108,-0.096201,-0.995329,-0.039774,-0.214545,-0.579241,19.194212,25.440411,-39.712227,,,,,,,
1508184079.280859,0.007980,0.153509,-3.059918,2.934927,0.515143,-0.227620,0.007886,-0.152907,-0.988209,0.082721,0.003219,-0.450557,19.828209,23.282780,-40.711765,,,,,,,
1508184079.300864,0.011957,0.216829,-3.063766,3.312360,0.017356,-0.112988,0.011676,-0.215134,-0.976515,0.005658,0.188248,-0.057741,20.101154,20.241386,-42.177280,,,,,,,
1508184079.320873,0.012920,0.287984,-3.065476,3.690297,0.081996,0.009482,0.012388,-0.284020,-0.958738,-0.041761,0.250665,0.207441,20.084137,17.301270,-43.473980,,,,,,,
1508184079.340851,0.017759,0.363095,-3.066126,3.728038,0.338722,0.002532,0.016600,-0.355170,-0.934654,-0.010893,0.283072,0.310143,20.134422,15.668089,-44.065968,,,,,,,
1508184079.360877,0.028298,0.434765,-3.068252,3.485660,0.511372,-0.008320,0.025662,-0.421197,-0.906606,0.037494,0.301629,0.586126,20.634842,10.716700,-45.299549,,,,,,,
1508184079.380894,0.037321,0.500068,-3.069991,3.111890,0.328116,0.056463,0.032743,-0.479485,-0.876939,0.043444,0.346718,0.697969,21.054089,7.651964,-45.725990,,,,,,,
1508184079.400880,0.040927,0.556721,-3.070840,2.659046,0.040619,0.060973,0.034737,-0.528405,-0.848281,0.030677,0.414239,0.712905,21.195517,6.237659,-45.875214,,,,,,,
1508184079.420908,0.040468,0.602923,-3.073770,2.081314,-0.145375,-0.077714,0.033324,-0.567052,-0.823007,-0.027128,0.450307,0.836252,21.222986,2.649618,-46.208847,,,,,,,
1508184079.440914,0.042258,0.635892,-3.078278,1.409628,0.044527,-0.138611,0.033988,-0.593895,-0.803824,-0.031501,0.527764,0.854987,21.137117,1.005520,-46.313114,,,,,,,
1508184079.460922,0.050366,0.656988,-3.084212,0.882010,0.363291,-0.202551,0.039865,-0.610734,-0.790832,-0.024164,0.559282,0.858367,21.170053,0.418596,-46.307091,,,,,,,
1508184079.480928,0.061449,0.670181,-3.088626,0.542069,0.368485,-0.093608,0.048128,-0.621128,-0.782230,0.039931,0.544285,0.732288,21.657642,-0.654793,-46.078316,,,,,,,
1508184079.500920,0.066849,0.674816,-3.091398,0.037779,0.085295,-0.111515,0.052158,-0.624754,-0.779078,0.047589,0.533049,0.717280,21.860477,-0.921711,-45.977856,,,,,,,
1508184079.520942,0.069902,0.668978,-3.094445,-0.458810,0.075899,-0.145128,0.054790,-0.620185,-0.782540,-0.036358,0.526847,0.698449,21.937687,-0.844193,-45.942558,,,,,,,
1508184079.540949,0.075237,0.656758,-3.096965,-0.656226,0.247462,-0.150667,0.059530,-0.610552,-0.789735,-0.087209,0.536837,0.618547,22.036840,-0.336723,-45.901608,,,,,,,
1508184079.560948,0.082940,0.640466,-3.099732,-0.930440,0.324259,-0.166503,0.066427,-0.597569,-0.799061,-0.061529,0.406605,0.545384,22.272839,0.359947,-45.787384,,,,,,,
1508184079.580963,0.089221,0.616350,-3.100689,-1.349627,0.248700,-0.150165,0.072707,-0.578061,-0.812748,-0.045897,0.358151,0.415852,22.557653,1.333836,-45.629669,,,,,,,
1508184079.600970,0.094697,0.585910,-3.103522,-1.566222,0.180976,-0.348418,0.078785,-0.552957,-0.829476,-0.062503,0.342737,0.299050,22.801876,3.049410,-45.425423,,,,,,,
1508184079.620976,0.104478,0.553179,-3.110616,-1.577983,0.397481,-0.478439,0.088735,-0.525395,-0.846219,-0.063680,0.296040,0.221677,22.925665,4.272638,-45.264244,,,,,,,
1508184079.640984,0.117888,0.525057,-3.117551,-1.198246,0.484659,-0.440535,0.101772,-0.501262,-0.859290,-0.031261,0.287075,0.167395,23.260469,5.871492,-44.912910,,,,,,,
1508184079.660990,0.125858,0.503613,-3.124246,-1.011615,0.021148,-0.396633,0.109942,-0.482593,-0.868917,0.069746,0.044666,0.131872,23.616367,7.381741,-44.502476,,,,,,,
1508184079.680997,0.121366,0.475203,-3.127800,-1.700026,-0.421042,-0.251084,0.107654,-0.457519,-0.882659,0.046414,-0.257234,0.077560,23.381714,8.637224,-44.400307,,,,,,,
1508184079.700996,0.108208,0.430659,-3.123046,-2.554524,-0.625935,0.040429,0.098136,-0.417470,-0.903376,0.039727,-0.300593,0.049525,23.164665,9.487535,-44.340485,,,,,,,
1508184079.720985,0.089475,0.366615,-3.114217,-3.673861,-0.887851,0.115443,0.083418,-0.358457,-0.929812,0.210558,-0.491717,-0.275923,22.314344,13.050386,-43.868561,,,,,,,
1508184079.741018,0.062633,0.278377,-3.105133,-4.908343,-1.409442,0.083414,0.060183,-0.274795,-0.959617,0.255995,-0.594407,-0.622978,21.416166,16.594265,-43.112312,,,,,,,
1508184079.761025,0.027170,0.161576,-3.095127,-6.313740,-1.666411,0.383561,0.026813,-0.160874,-0.986611,0.285184,-0.488983,-0.724632,20.446335,19.955786,-42.147446,,,,,,,
1508184079.781032,-0.005699,0.031796,-3.081759,-6.439947,-1.439934,0.608560,-0.005697,-0.031791,-0.999478,0.252996,0.060309,-1.050570,19.536461,23.743073,-40.586777,,,,,,,
1508184079.801016,-0.028418,-0.084038,-3.074593,-5.291631,-1.016863,0.377639,-0.028314,0.083939,-0.996069,0.346170,0.361191,-1.435175,18.397850,30.633331,-36.274117,,,,,,,
1508184079.821046,-0.036727,-0.163092,-3.062456,-2.912928,-0.180617,1.127199,-0.036232,0.162370,-0.986064,0.311226,0.368056,-1.521778,18.191978,32.363914,-34.847126,,,,,,,
1508184079.841052,-0.034979,-0.179040,-3.031372,0.555859,-0.300613,1.570984,-0.034412,0.178085,-0.983413,0.237278,0.562287,-1.421448,19.139708,34.124336,-32.586727,,,,,,,
1508184079.861059,-0.037443,-0.136715,-3.009879,2.837185,-0.231132,0.630986,-0.037085,0.136290,-0.989975,0.028921,0.007204,-0.989991,19.748430,32.599854,-33.763031,,,,,,,
1508184079.881066,-0.035656,-0.074409,-2.996859,3.142790,0.215238,0.574168,-0.035550,0.074340,-0.996599,-0.050097,-0.099334,-0.792143,19.868536,31.475168,-34.745483,,,,,,,
1508184079.901072,-0.022647,-0.017275,-2.981797,2.700463,0.843594,0.695476,-0.022642,0.017274,-0.999594,-0.036211,-0.097917,-0.493875,20.314552,29.012556,-36.582565,,,,,,,
1508184079.921055,-0.002855,0.033690,-2.966523,2.540737,1.010748,0.759282,-0.002853,-0.033684,-0.999428,0.052399,0.096870,-0.228019,21.838388,25.545443,-38.251907,,,,,,,
1508184079.941088,0.013527,0.087575,-2.950712,2.807105,0.744246,0.822660,0.013474,-0.087463,-0.996077,0.035964,0.199081,-0.149858,22.686451,23.786213,-38.887463,,,,,,,
1508184079.961092,0.023152,0.148158,-2.935308,3.112796,0.500229,0.823837,0.022896,-0.147616,-0.988780,-0.063531,0.237277,0.081401,23.406466,21.848261,-39.591469,,,,,,,
1508184079.981102,0.029293,0.211423,-2.919496,3.113170,0.431948,0.877075,0.028637,-0.209851,-0.977314,-0.210628,0.226773,0.377247,24.503101,17.490770,-41.065369,,,,,,,
1508184080.001107,0.034558,0.271608,-2.903952,2.896716,0.468340,0.816997,0.033284,-0.268281,-0.962766,-0.244115,0.279786,0.455823,24.988256,15.264821,-41.656521,,,,,,,
1508184080.021114,0.040976,0.326803,-2.890649,2.624279,0.545360,0.689195,0.038796,-0.321017,-0.946279,-0.293770,0.328387,0.595998,25.456114,13.135425,-42.096798,,,,,,,
1508184080.041122,0.048141,0.375971,-2.880349,2.310307,0.523383,0.531936,0.044761,-0.367176,-0.929074,-0.296546,0.313709,0.726956,26.359716,9.329220,-42.553783,,,,,,,
1508184080.061127,0.055011,0.417177,-2.873247,1.859524,0.451368,0.377639,0.050267,-0.405181,-0.912854,-0.289891,0.323333,0.737850,26.747272,7.721784,-42.633919,,,,,,,
1508184080.081126,0.060545,0.448444,-2.868368,1.359800,0.340914,0.275118,0.054525,-0.433564,-0.899472,-0.286032,0.322052,0.749707,27.253124,5.633713,-42.640614,,,,,,,
1508184080.101143,0.064540,0.470425,-2.864692,0.932886,0.249552,0.204255,0.057489,-0.453265,-0.889520,-0.314737,0.349673,0.716424,27.537670,4.479033,-42.594704,,,,,,,
1508184080.121124,0.068810,0.485017,-2.862863,0.607145,0.262666,0.079552,0.060826,-0.466224,-0.882573,-0.314671,0.372794,0.678655,27.651457,4.048086,-42.564106,,,,,,,
1508184080.141151,0.074892,0.493869,-2.863994,0.361456,0.298213,-0.087122,0.065881,-0.474036,-0.878037,-0.268487,0.371940,0.619599,27.995314,3.262316,-42.406525,,,,,,,
1508184080.161164,0.084218,0.498557,-2.869198,0.184112,0.358285,-0.274463,0.073879,-0.478158,-0.875161,-0.229778,0.322351,0.562127,28.262104,3.103102,-42.241184,,,,,,,
1508184080.181154,0.094576,0.498294,-2.877393,-0.096488,0.293644,-0.408736,0.082952,-0.477928,-0.874474,-0.203924,0.305366,0.538109,28.402258,3.120131,-42.145821,,,,,,,
1508184080.201177,0.105074,0.491862,-2.888072,-0.364396,0.274813,-0.546881,0.092448,-0.472268,-0.876594,-0.191142,0.296319,0.474723,28.726297,3.652348,-41.882618,,,,,,,
1508184080.221184,0.117429,0.482325,-2.900009,-0.388428,0.386767,-0.596470,0.103794,-0.463840,-0.879818,-0.196597,0.326267,0.409038,28.940674,4.319996,-41.670952,,,,,,,
1508184080.241187,0.131344,0.475091,-2.913433,-0.243906,0.327147,-0.630901,0.116462,-0.457420,-0.881592,-0.180229,0.239692,0.357574,29.079203,4.648405,-41.538967,,,,,,,
1508184080.261176,0.135653,0.465892,-2.925259,-0.550064,-0.293922,-0.573681,0.120824,-0.449220,-0.885213,-0.095022,0.007905,0.228048,29.238052,5.556877,-41.315262,,,,,,,
1508184080.281204,0.129292,0.444338,-2.933886,-1.293624,-0.591135,-0.473912,0.116412,-0.429861,-0.895359,-0.215808,-0.067301,0.171070,28.812452,6.564938,-41.466103,,,,,,,
1508184080.301191,0.116264,0.408066,-2.937177,-2.131298,-0.820305,-0.296153,0.106477,-0.396834,-0.911693,-0.218492,-0.199357,0.097088,28.526100,7.268379,-41.546669,,,,,,,
1508184080.321216,0.091642,0.348912,-2.935156,-3.495805,-1.420870,-0.238437,0.086000,-0.341876,-0.935802,-0.289399,-0.301328,-0.257008,27.290199,10.410052,-41.708145,,,,,,,
1508184080.341221,0.058939,0.255839,-2.939203,-5.395582,-1.830569,-0.741828,0.056988,-0.253057,-0.965771,-0.307308,-0.384318,-0.380115,26.264162,13.001841,-41.639397,,,,,,,
1508184080.361207,0.022361,0.112852,-2.953787,-8.172386,-1.869623,-1.107052,0.022216,-0.112613,-0.993391,-0.327240,-0.350858,-0.488696,24.461950,18.158596,-40.799164,,,,,,,
1508184080.381240,0.003308,-0.060275,-2.972175,-8.226936,-0.190170,-0.890383,0.003302,0.060238,-0.998179,-0.543082,1.314075,-1.145773,22.366203,26.996136,-36.927696,,,,,,,
1508184080.401246,0.016224,-0.161380,-2.992835,-2.523807,0.891539,-1.314477,0.016013,0.160681,-0.986877,-0.312552,1.667109,-1.590104,22.146236,31.106152,-33.684490,,,,,,,
1508184080.421235,0.010325,-0.134935,-3.028890,3.027875,-0.632874,-1.977901,0.010231,0.134526,-0.990857,0.024620,1.706569,-1.674243,21.918413,32.791737,-32.202156,,,,,,,
1508184080.441261,-0.015980,-0.063832,-3.068334,3.204152,-1.181659,-1.905030,-0.015947,0.063788,-0.997836,-0.244078,-0.439963,-0.690183,19.387657,31.103495,-35.346642,,,,,,,
1508184080.461267,-0.025259,-0.017040,-3.103695,1.871540,0.140439,-1.810176,-0.025253,0.017040,-0.999536,-0.433610,-0.155818,-0.476081,18.046474,30.112165,-36.881916,,,,,,,
1508184080.481251,-0.013746,0.011565,-3.141386,1.212553,0.661768,-1.943066,-0.013745,-0.011565,-0.999839,-0.196048,-0.189363,-0.347192,17.298197,29.540024,-37.694202,,,,,,,
1508184080.501267,-0.006226,0.036213,3.103775,1.309586,0.067319,-1.930252,-0.006222,-0.036205,-0.999325,0.094982,0.042507,-0.264713,16.215578,29.078358,-38.525284,,,,,,,
1508184080.521287,-0.013012,0.069303,3.063775,1.853030,-0.705998,-2.019678,-0.012980,-0.069247,-0.997515,0.076640,0.056445,-0.201032,15.272649,28.711000,-39.180584,,,,,,,
1508184080.541282,-0.025493,0.112321,3.023939,2.204035,-0.755013,-2.056551,-0.025330,-0.112085,-0.993376,0.065750,0.054147,-0.053011,14.002466,28.054707,-40.119293,,,,,,,
1508184080.561286,-0.030223,0.157330,2.983135,2.145105,-0.383202,-2.071495,-0.029845,-0.156682,-0.987198,0.280532,0.012532,0.122467,11.490069,26.146439,-42.154900,,,,,,,
1508184080.581308,-0.029192,0.198327,2.944732,1.895139,-0.279200,-1.844628,-0.028616,-0.197029,-0.979980,0.349386,0.034035,0.147598,10.495859,25.146694,-43.013649,,,,,,,
1508184080.601289,-0.030196,0.234591,2.912363,1.697758,-0.492825,-1.530021,-0.029365,-0.232445,-0.972166,0.406241,0.069725,0.227019,9.627765,24.190821,-43.758469,,,,,,,
1508184080.621314,-0.035473,0.268033,2.883004,1.577661,-0.692136,-1.458798,-0.034199,-0.264836,-0.963687,0.398274,0.080113,0.354877,7.865244,22.343018,-45.073505,,,,,,,
1508184080.641329,-0.041253,0.296641,2.853647,1.235098,-0.645177,-1.460288,-0.039440,-0.292309,-0.955510,0.414654,0.127102,0.393193,6.582395,21.226816,-45.812531,,,,,,,
1508184080.661317,-0.041153,0.318215,2.825860,0.928533,-0.265178,-1.276833,-0.039076,-0.312872,-0.948991,0.432981,0.179983,0.406465,5.998214,20.773605,-46.099586,,,,,,,
1508184080.681343,-0.037129,0.336005,2.803491,0.812434,-0.137884,-0.994956,-0.035045,-0.329719,-0.943429,0.596400,0.274253,0.372079,4.880865,19.689909,-46.703083,,,,,,,
1508184080.701347,-0.034530,0.351466,2.785494,0.680542,-0.201074,-0.807338,-0.032413,-0.344275,-0.938309,0.644534,0.247839,0.376908,4.376246,19.048649,-47.017982,,,,,,,
1508184080.721345,-0.034579,0.361490,2.772129,0.339197,-0.252689,-0.522697,-0.032338,-0.353668,-0.934812,0.641332,0.241989,0.361829,4.130321,18.777145,-47.149258,,,,,,,
1508184080.741340,-0.035995,0.364268,2.765328,0.011251,-0.110471,-0.219552,-0.033626,-0.356265,-0.933780,0.587062,0.326709,0.350009,3.535328,18.406906,-47.343220,,,,,,,
1508184080.761370,-0.034092,0.362579,2.763399,-0.127973,0.171410,0.001455,-0.031870,-0.354687,-0.934442,0.556802,0.342358,0.332208,3.473700,18.466778,-47.324467,,,,,,,
1508184080.781373,-0.028817,0.358966,2.766264,-0.191034,0.377660,0.211771,-0.026977,-0.351306,-0.935872,0.551376,0.326816,0.311925,3.576833,18.532539,-47.291061,,,,,,,
1508184080.801368,-0.022645,0.354537,2.772963,-0.229230,0.463596,0.390758,-0.021235,-0.347156,-0.937567,0.453669,0.233737,0.303930,4.238591,18.782722,-47.137428,,,,,,,
1508184080.821391,-0.015184,0.349119,2.784108,-0.283546,0.616567,0.609305,-0.014268,-0.342070,-0.939566,0.373643,0.172362,0.313880,4.913262,18.972260,-46.995815,,,,,,,
1508184080.841371,-0.006603,0.341668,2.798913,-0.435399,0.721813,0.734783,-0.006221,-0.335060,-0.942176,0.348903,0.148994,0.318534,5.329402,19.078314,-46.907448,,,,,,,
1508184080.861396,0.003944,0.330921,2.815052,-0.577846,0.812308,0.777295,0.003730,-0.324914,-0.945736,0.246041,0.087060,0.223980,6.792696,19.580070,-46.509930,,,,,,,
1508184080.881412,0.013597,0.318525,2.832543,-0.657547,0.715227,0.859802,0.012913,-0.313166,-0.949610,0.163036,0.028025,0.126048,7.838953,20.025249,-46.154449,,,,,,,
1508184080.901423,0.023091,0.304454,2.851413,-0.764796,0.834493,0.893341,0.022027,-0.299773,-0.953756,0.115348,0.017180,0.088156,8.342199,20.262980,-45.962082,,,,,,,
1508184080.921406,0.037473,0.289359,2.869105,-0.753131,1.077645,0.752253,0.035907,-0.285338,-0.957754,0.119352,0.138442,-0.002100,10.060516,21.065605,-45.251740,,,,,,,
1508184080.941433,0.058213,0.278026,2.883491,-0.470566,1.299356,0.645394,0.055946,-0.274458,-0.959970,0.131203,0.133223,-0.039053,11.065207,21.428413,-44.845039,,,,,,,
1508184080.961427,0.078096,0.275569,2.900355,0.020019,1.076040,0.925503,0.075073,-0.272094,-0.959338,0.085495,0.023300,-0.091886,12.146480,21.628319,-44.467651,,,,,,,
1508184080.981422,0.086742,0.284397,2.922030,0.513347,0.568452,1.132959,0.083154,-0.280579,-0.956222,-0.090462,-0.111191,-0.007294,14.069178,21.130775,-44.138893,,,,,,,
1508184081.001454,0.091962,0.295605,2.944576,0.302158,0.665503,1.101853,0.087850,-0.291319,-0.952584,-0.143163,-0.193133,0.042901,15.033521,20.346115,-44.189617,,,,,,,
1508184081.021455,0.102310,0.292704,2.968014,-0.632733,0.927756,1.115812,0.097787,-0.288542,-0.952461,-0.062784,-0.362886,0.020149,15.569883,20.087505,-44.122150,,,,,,,
1508184081.041450,0.109351,0.270444,2.996668,-1.608748,0.524831,1.371903,0.105166,-0.267159,-0.957897,0.074323,-0.509010,-0.172337,17.397251,20.501347,-43.240303,,,,,,,
1508184081.061467,0.098344,0.228638,3.036621,-2.703120,-0.400655,1.941688,0.095631,-0.226651,-0.969270,0.073315,-0.595233,-0.219176,18.207180,21.660229,-42.332336,,,,,,,
1508184081.081453,0.064443,0.163582,3.087119,-3.960886,-1.740986,2.233977,0.063539,-0.162853,-0.984602,0.027007,-0.607090,-0.408052,18.426853,22.486477,-41.803146,,,,,,,
1508184081.101424,0.009706,0.056193,3.129564,-6.547105,-2.775658,1.656992,0.009690,-0.056164,-0.998375,-0.235047,-0.528461,-0.358025,17.666098,26.634068,-39.638729,,,,,,,
1508184081.121441,-0.034271,-0.108066,-3.129627,-8.803959,-1.353304,1.272317,-0.034065,0.107856,-0.993583,-0.420815,-0.158088,-0.392053,16.727394,30.464725,-37.212742,,,,,,,
1508184081.141427,-0.022958,-0.257568,-3.102499,-5.893759,0.696737,1.707443,-0.022198,0.254729,-0.966758,-0.582431,1.096757,-1.550637,16.982477,35.922356,-31.841373,,,,,,,
1508184081.161452,-0.009091,-0.280204,-3.068816,1.872422,-0.186738,1.465980,-0.008736,0.276552,-0.960959,0.070214,1.577239,-1.909768,18.932201,38.064613,-28.024107,,,,,,,
1508184081.181462,-0.027368,-0.179713,-3.053073,6.318251,-1.515741,0.171434,-0.026924,0.178747,-0.983527,-0.259041,0.517282,-1.310480,19.216028,35.357037,-31.198040,,,,,,,
1508184081.201455,-0.050932,-0.055751,-3.049607,5.607879,-0.668358,-0.001333,-0.050831,0.055722,-0.997152,-0.440868,-0.105298,-1.019633,18.742750,33.242172,-33.709949,,,,,,,
1508184081.221458,-0.038164,0.040072,-3.039099,4.319561,1.203852,0.394737,-0.038124,-0.040061,-0.998470,-0.400261,0.074424,-0.608571,18.499073,27.153456,-38.899452,,,,,,,
1508184081.241483,-0.011096,0.118549,-3.031695,3.856445,1.272543,0.194690,-0.011018,-0.118272,-0.992920,-0.058349,0.173798,-0.515671,19.748615,23.815468,-40.441429,,,,,,,
1508184081.261476,0.001423,0.199729,-3.028476,4.229363,0.272365,0.109749,0.001395,-0.198403,-0.980119,-0.022681,0.303353,-0.390562,20.263269,22.195374,-41.103027,,,,,,,
1508184081.281488,-0.001262,0.290250,-3.028413,4.657526,-0.305855,-0.044264,-0.001210,-0.286192,-0.958172,-0.137981,0.306746,-0.004811,20.586617,16.696079,-43.475574,,,,,,,
1508184081.301504,-0.006703,0.382823,-3.028719,4.538510,-0.182336,-0.005447,-0.006218,-0.373540,-0.927593,-0.119316,0.342779,0.214825,20.301718,12.591008,-44.966660,,,,,,,
1508184081.321511,-0.006782,0.469079,-3.027411,4.171765,0.125531,0.033016,-0.006049,-0.452065,-0.891964,-0.082452,0.425698,0.286785,20.240505,10.555594,-45.514774,,,,,,,
1508184081.341490,-0.003303,0.547424,-3.027000,3.774421,0.183265,-0.022971,-0.002820,-0.520490,-0.853863,0.054212,0.481427,0.533017,20.415194,4.861223,-46.392693,,,,,,,
1508184081.361518,-0.001825,0.618968,-3.026750,3.471212,0.000030,0.022566,-0.001487,-0.580195,-0.814476,0.088645,0.583842,0.634010,20.532305,1.467718,-46.572136,,,,,,,
1508184081.381508,-0.004248,0.684490,-3.025834,3.136693,-0.121354,0.038439,-0.003291,-0.632278,-0.774735,0.079768,0.632934,0.683395,20.520803,-0.139048,-46.600113,,,,,,,
1508184081.401534,-0.009349,0.741357,-3.021586,2.652439,-0.098126,0.209073,-0.006895,-0.675289,-0.737521,0.058180,0.654766,0.836733,20.354263,-4.473152,-46.458458,,,,,,,
1508184081.421545,-0.015759,0.788235,-3.014174,2.185813,-0.059681,0.219529,-0.011111,-0.709110,-0.705010,0.052676,0.740604,0.923104,20.259235,-6.852375,-46.209328,,,,,,,
1508184081.441552,-0.019950,0.827612,-3.009080,1.841738,0.005626,0.098348,-0.013498,-0.736318,-0.676501,0.046319,0.761571,0.946795,20.218128,-7.882418,-46.062874,,,,,,,
1508184081.461558,-0.021595,0.858347,-3.005235,1.325719,0.095226,0.102767,-0.014115,-0.756763,-0.653537,0.005265,0.697742,1.032565,20.211439,-10.381636,-45.567673,,,,,,,
1508184081.481563,-0.020767,0.876937,-3.001635,0.689644,0.234960,0.088422,-0.013280,-0.768784,-0.639371,-0.025889,0.669434,0.994443,20.320168,-11.413210,-45.271656,,,,,,,
1508184081.501565,-0.016636,0.881971,-2.998662,-0.012698,0.359777,0.083940,-0.010574,-0.771993,-0.635543,-0.044755,0.649267,0.961394,20.426226,-11.704826,-45.149303,,,,,,,
1508184081.521560,-0.007182,0.873490,-2.999276,-0.660118,0.526492,-0.104595,-0.004612,-0.766575,-0.642138,-0.050213,0.640324,0.876559,20.919821,-11.615557,-44.945892,,,,,,,
1508184081.541587,0.012599,0.853927,-3.006477,-1.138722,0.770942,-0.300781,0.008278,-0.753866,-0.656976,-0.063316,0.603079,0.799722,21.363754,-11.026608,-44.885384,,,,,,,
1508184081.561593,0.034165,0.825506,-3.018238,-1.598827,0.546688,-0.498715,0.023165,-0.734891,-0.677790,-0.023181,0.512631,0.640512,22.091385,-9.816582,-44.814049,,,,,,,
1508184081.581599,0.053063,0.786719,-3.032335,-2.087775,0.394716,-0.615570,0.037454,-0.708040,-0.705178,-0.053216,0.453325,0.380883,22.767784,-7.583778,-44.908882,,,,,,,
1508184081.601608,0.072447,0.740457,-3.046178,-2.349454,0.574838,-0.631848,0.053431,-0.674626,-0.736224,-0.071116,0.426579,0.310458,23.115273,-5.896587,-44.984528,,,,,,,
1508184081.621590,0.092916,0.693197,-3.057488,-2.265150,0.677036,-0.609934,0.071369,-0.639000,-0.765889,-0.012973,0.413902,0.151433,23.705345,-3.495277,-44.928089,,,,,,,
1508184081.641621,0.108901,0.651015,-3.066486,-1.934468,0.358348,-0.559710,0.086456,-0.605994,-0.790757,0.010452,0.370872,0.010209,24.421942,-0.701719,-44.674038,,,,,,,
1508184081.661629,0.118875,0.612961,-3.076975,-1.829380,0.151906,-0.679419,0.097005,-0.575292,-0.812176,0.016322,0.207173,-0.071201,24.632952,1.263250,-44.545654,,,,,,,
1508184081.681618,0.128255,0.572766,-3.087659,-2.014652,0.222223,-0.662173,0.107491,-0.541959,-0.833502,0.040244,0.112119,-0.117425,24.708540,2.765905,-44.435699,,,,,,,
1508184081.701613,0.138063,0.530549,-3.094716,-2.028382,0.296546,-0.538483,0.118705,-0.506007,-0.854322,0.087914,0.101908,-0.237841,24.938124,5.403904,-44.063377,,,,,,,
1508184081.721649,0.141446,0.491819,-3.099177,-1.807197,-0.155469,-0.388143,0.124266,-0.472230,-0.872672,0.097338,-0.014052,-0.281502,25.038025,6.900557,-43.796951,,,,,,,
1508184081.741641,0.130260,0.454226,-3.098471,-2.002723,-0.689630,-0.123271,0.116721,-0.438767,-0.890988,0.081139,-0.337585,-0.329959,24.764194,8.660311,-43.639740,,,,,,,
1508184081.761641,0.110731,0.405991,-3.091499,-2.768619,-0.913554,0.085280,0.101522,-0.394929,-0.913085,0.100077,-0.580199,-0.447694,23.939463,11.061551,-43.557293,,,,,,,
1508184081.781669,0.083952,0.334884,-3.080975,-4.120743,-1.327763,0.171208,0.079195,-0.328660,-0.941122,0.169218,-0.766265,-0.698542,23.062914,13.825001,-43.239624,,,,,,,
1508184081.801677,0.047082,0.231480,-3.071351,-5.923172,-2.007800,0.073660,0.045810,-0.229419,-0.972249,0.185193,-0.887784,-0.774455,22.487850,15.646812,-42.920471,,,,,,,
1508184081.821684,-0.004510,0.076111,-3.069811,-8.981301,-2.671254,-0.169270,-0.004497,-0.076037,-0.997095,0.040157,-0.622480,-0.842383,19.790495,23.652172,-40.516720,,,,,,,
1508184081.841689,-0.036975,-0.121489,-3.068603,-9.691580,-0.580934,0.819266,-0.036694,0.121191,-0.991951,-0.357975,0.805369,-1.170586,18.155134,31.087622,-36.008945,,,,,,,
1508184081.861672,-0.021251,-0.260393,-3.042737,-4.443634,0.538900,1.624406,-0.020533,0.257461,-0.966071,-0.201772,1.333802,-2.028100,18.416744,34.122784,-33.002312,,,,,,,
1508184081.881698,-0.021315,-0.241151,-3.023343,3.839070,-0.718538,0.284357,-0.020697,0.238820,-0.970843,0.226889,1.231471,-1.799298,20.125929,36.247002,-29.560028,,,,,,,
1508184081.901704,-0.043218,-0.119899,-3.031876,6.436495,-1.058770,-0.896252,-0.042894,0.119612,-0.991894,-0.176329,-0.484419,-1.246586,19.316511,32.957668,-33.665382,,,,,,,
1508184081.921700,-0.049721,-0.015669,-3.037712,4.619435,0.430615,-0.229790,-0.049694,0.015668,-0.998642,-0.286732,-0.708463,-0.751984,18.684601,30.992195,-35.819870,,,,,,,
1508184081.941726,-0.025434,0.056528,-3.036631,3.173891,1.512132,-0.201738,-0.025391,-0.056498,-0.998080,-0.089249,-0.128316,-0.479185,19.072769,26.188366,-39.282215,,,,,,,
1508184081.961732,0.002765,0.116968,-3.044833,3.043477,1.160131,-0.481238,0.002746,-0.116701,-0.993163,0.101594,0.065416,-0.329850,20.050676,23.907700,-40.237862,,,,,,,
1508184081.981721,0.016368,0.181295,-3.053991,3.336242,0.311963,-0.396648,0.016099,-0.180303,-0.983479,0.104553,0.182134,-0.214412,20.367695,22.755699,-40.743446,,,,,,,
1508184082.001723,0.020859,0.253057,-3.063724,3.746625,0.131825,-0.391145,0.020193,-0.250365,-0.967941,-0.065985,0.329802,0.215042,20.494240,18.752207,-42.673576,,,,,,,
1508184082.021753,0.030486,0.330908,-3.070391,3.941066,0.540274,-0.114645,0.028828,-0.324902,-0.945308,-0.060337,0.338528,0.449184,20.640343,15.536336,-43.878151,,,,,,,
1508184082.041756,0.045507,0.407675,-3.073876,3.723735,0.728598,0.023539,0.041763,-0.396476,-0.917095,0.001603,0.397284,0.543270,20.882854,13.818130,-44.335754,,,,,,,
1508184082.061769,0.058307,0.476885,-3.076377,3.283874,0.458014,0.086440,0.051773,-0.459014,-0.886919,0.090684,0.404357,0.782534,21.792288,8.872612,-45.156021,,,,,,,
1508184082.081773,0.063127,0.535505,-3.078189,2.695558,0.049063,0.110939,0.054254,-0.510275,-0.858298,0.047217,0.416495,0.868583,22.077427,6.041645,-45.483833,,,,,,,
1508184082.101778,0.060530,0.580484,-3.079119,1.967538,-0.236144,0.064439,0.050584,-0.548429,-0.834666,0.019775,0.458524,0.904017,22.084665,4.827133,-45.625210,,,,,,,
1508184082.121779,0.059232,0.611435,-3.082763,1.320216,-0.107768,-0.128871,0.048472,-0.574043,-0.817389,-0.068232,0.504570,0.993582,21.828947,2.206476,-45.949123,,,,,,,
1508184082.141794,0.063361,0.629465,-3.086547,0.650807,0.225594,-0.016977,0.051183,-0.588713,-0.806720,-0.043935,0.466444,0.952778,18.413675,7.971195,-43.251381,,,,,,,
1508184082.161782,0.067500,0.633389,-3.083364,-0.081778,0.305275,0.180749,0.054366,-0.591880,-0.804191,-0.008269,0.486045,0.913917,18.524939,7.725019,-43.248535,,,,,,,
1508184082.181807,0.069442,0.624746,-3.080220,-0.633771,0.091592,0.034980,0.056280,-0.584891,-0.809157,0.030878,0.502677,0.781233,18.901165,7.826918,-43.067047,,,,,,,
1508184082.201815,0.069843,0.608096,-3.079824,-0.905751,0.026913,-0.081171,0.057276,-0.571306,-0.818736,-0.046228,0.508745,0.680492,18.940084,8.488346,-42.924431,,,,,,,
1508184082.221810,0.073237,0.588955,-3.081686,-0.984684,0.190121,-0.184777,0.060844,-0.555492,-0.829293,-0.073615,0.479107,0.628045,18.948561,8.898241,-42.837585,,,,,,,
1508184082.241805,0.081066,0.566191,-3.085228,-1.235766,0.330962,-0.268737,0.068341,-0.536421,-0.841179,0.010044,0.332152,0.417198,19.163076,10.314693,-42.422504,,,,,,,
1508184082.261823,0.090004,0.535731,-3.089989,-1.661871,0.300369,-0.365007,0.077289,-0.510469,-0.856415,0.030377,0.285356,0.349412,19.326784,11.248652,-42.109718,,,,,,,
1508184082.281829,0.098027,0.499907,-3.095240,-1.737874,0.267444,-0.403925,0.085894,-0.479344,-0.873414,0.028211,0.289738,0.210923,19.481651,12.804248,-41.590885,,,,,,,
1508184082.301829,0.106160,0.471012,-3.100888,-1.166469,0.285381,-0.389686,0.094423,-0.453788,-0.886093,-0.072389,0.306816,0.121307,19.622948,14.650902,-40.909367,,,,,,,
1508184082.321833,0.113683,0.454405,-3.106957,-0.645882,0.182844,-0.317147,0.101927,-0.438928,-0.892722,-0.083861,0.203973,0.144660,19.703863,15.375510,-40.603409,,,,,,,
1508184082.341855,0.115057,0.438276,-3.111301,-0.925344,-0.105790,-0.304221,0.103953,-0.424379,-0.899498,-0.007258,-0.031752,0.108406,19.708202,16.050640,-40.339172,,,,,,,
1508184082.361861,0.114455,0.417567,-3.115398,-1.668058,-0.112976,-0.346211,0.104393,-0.405538,-0.908098,0.025185,-0.207576,-0.001845,19.465109,17.321671,-39.929367,,,,,,,
1508184082.381877,0.111394,0.376084,-3.116510,-2.242996,-0.257905,-0.245579,0.103394,-0.367281,-0.924345,0.074599,-0.228743,-0.082018,19.322868,18.209064,-39.602299,,,,,,,
1508184082.401864,0.099017,0.324458,-3.114493,-2.800694,-0.794852,-0.133943,0.093698,-0.318795,-0.943181,0.185660,-0.374747,-0.283290,18.973625,20.109089,-38.844707,,,,,,,
1508184082.421889,0.075351,0.259026,-3.109479,-3.601369,-1.285982,-0.004661,0.072769,-0.256139,-0.963897,0.271821,-0.565791,-0.579652,18.042154,23.015720,-37.656906,,,,,,,
1508184082.441898,0.040949,0.170886,-3.104741,-5.043128,-1.959767,-0.078046,0.040341,-0.170056,-0.984608,0.352649,-0.718585,-0.665553,17.252031,25.179811,-36.628265,,,,,,,
1508184082.461880,-0.004715,0.037413,-3.106115,-7.689705,-2.294506,-0.151178,-0.004712,-0.037404,-0.999289,0.422787,-0.875361,-0.711664,16.162315,27.936729,-35.094215,,,,,,,
1508184082.481889,-0.039482,-0.135728,-3.102366,-8.671170,-1.121308,0.849796,-0.039109,0.135311,-0.990031,0.077958,0.529041,-0.792806,14.115198,35.455067,-28.582943,,,,,,,
1508184082.501920,-0.039039,-0.275371,-3.081308,-5.364119,-0.013210,1.373992,-0.037558,0.271904,-0.961591,0.152457,0.996880,-1.501040,14.478404,38.450294,-24.191650,,,,,,,
1508184082.521900,-0.034471,-0.301742,-3.059312,1.195819,-0.332407,0.898129,-0.032907,0.297184,-0.954253,0.310190,1.283108,-1.734926,15.274064,39.937584,-21.094498,,,,,,,
1508184082.541928,-0.044475,-0.223631,-3.044614,5.034825,-0.745698,0.407545,-0.043354,0.221772,-0.974134,0.264270,0.940002,-1.439272,15.984275,38.510624,-23.124016,,,,,,,
1508184082.561940,-0.051254,-0.126963,-3.029947,4.351986,-0.134450,0.591127,-0.050819,0.126622,-0.990648,0.008766,-0.068913,-1.072035,16.003216,35.840351,-27.067537,,,,,,,
1508184082.581947,-0.034594,-0.056184,-3.010514,3.083177,1.173398,0.879141,-0.034533,0.056154,-0.997825,-0.157789,-0.090914,-0.608941,16.473967,33.957600,-29.133743,,,,,,,
1508184082.601933,-0.004714,-0.002287,-2.993130,2.630380,1.495384,0.792706,-0.004713,0.002287,-0.999986,0.057707,0.121965,-0.387938,18.139641,31.382206,-30.974117,,,,,,,
1508184082.621960,0.018705,0.053367,-2.976300,2.906229,0.964616,0.899362,0.018677,-0.053342,-0.998402,0.078949,0.285687,-0.172421,19.482868,29.359125,-32.120789,,,,,,,
1508184082.641967,0.030224,0.117972,-2.959717,3.383875,0.475539,0.907163,0.030009,-0.117699,-0.992596,0.022389,0.369774,-0.067020,20.033394,28.218412,-32.797401,,,,,,,
1508184082.661974,0.034782,0.189291,-2.943390,3.572710,0.346523,0.945146,0.034154,-0.188162,-0.981544,-0.149724,0.276694,0.285682,21.228577,24.187077,-35.179794,,,,,,,
1508184082.681957,0.038896,0.259742,-2.925202,3.409053,0.430526,1.041084,0.037582,-0.256831,-0.965725,-0.246277,0.262080,0.450283,21.957249,21.224157,-36.615566,,,,,,,
1508184082.701968,0.042690,0.324875,-2.907202,3.087613,0.469145,0.945865,0.040445,-0.319190,-0.946827,-0.259332,0.318397,0.527500,22.330330,19.748474,-37.210743,,,,,,,
1508184082.721969,0.047002,0.383677,-2.892810,2.811904,0.438811,0.701262,0.043569,-0.374333,-0.926270,-0.306631,0.384739,0.701295,23.341631,15.647048,-38.517830,,,,,,,
1508184082.742002,0.051206,0.437296,-2.884905,2.559693,0.331940,0.373514,0.046367,-0.423491,-0.904713,-0.298519,0.400237,0.792973,23.814522,13.260977,-39.119053,,,,,,,
1508184082.762008,0.056324,0.483670,-2.882046,2.116159,0.330250,0.208594,0.049837,-0.465031,-0.883891,-0.296510,0.389790,0.819071,23.985359,12.189839,-39.362362,,,,,,,
1508184082.781997,0.062607,0.518910,-2.879745,1.542397,0.401763,0.209054,0.054330,-0.495934,-0.866659,-0.289727,0.374077,0.881048,24.459972,9.611749,-39.782021,,,,,,,
1508184082.802023,0.069791,0.543859,-2.877755,1.057441,0.382880,0.124388,0.059673,-0.517442,-0.853635,-0.276912,0.413575,0.865598,24.823961,8.435400,-39.823364,,,,,,,
1508184082.822029,0.076321,0.558063,-2.878489,0.497591,0.278945,-0.034697,0.064679,-0.529544,-0.845813,-0.264447,0.411197,0.843601,24.977810,8.015064,-39.813980,,,,,,,
1508184082.842028,0.082934,0.561511,-2.880415,0.006261,0.277047,-0.089748,0.070119,-0.532466,-0.843542,-0.244802,0.407939,0.779531,25.313478,7.515659,-39.699219,,,,,,,
1508184082.862023,0.091663,0.558210,-2.883907,-0.207389,0.392373,-0.203222,0.077640,-0.529669,-0.844644,-0.239261,0.426641,0.685846,25.542692,7.661217,-39.524193,,,,,,,
1508184082.882027,0.103411,0.552996,-2.889030,-0.264504,0.474508,-0.252354,0.087842,-0.525239,-0.846409,-0.230755,0.411240,0.637196,25.685848,7.800438,-39.404007,,,,,,,
1508184082.902048,0.115438,0.546508,-2.894976,-0.307334,0.392662,-0.335373,0.098405,-0.519707,-0.848658,-0.142548,0.366723,0.445460,26.168594,8.316671,-38.978493,,,,,,,
1508184082.922064,0.126290,0.538670,-2.905373,-0.338704,0.245079,-0.574193,0.108118,-0.512995,-0.851555,-0.131556,0.339625,0.416588,26.312380,8.660921,-38.806343,,,,,,,
1508184082.942056,0.137750,0.531867,-2.918763,-0.203856,0.189741,-0.618276,0.118347,-0.507143,-0.853698,-0.179428,0.250536,0.261703,26.401604,9.215129,-38.617638,,,,,,,
1508184082.962050,0.144178,0.525206,-2.932033,-0.362157,-0.176693,-0.601114,0.124314,-0.501392,-0.856243,-0.099259,0.008411,0.156445,26.358757,9.831835,-38.494625,,,,,,,
1508184082.982085,0.137870,0.504682,-2.940758,-1.407630,-0.737028,-0.458916,0.120300,-0.483529,-0.867022,-0.073211,-0.149497,0.095385,25.944202,10.662695,-38.555031,,,,,,,
1508184083.002084,0.118947,0.459517,-2.943284,-2.720268,-1.133105,-0.389275,0.106357,-0.443515,-0.889934,-0.146503,-0.281750,-0.024068,25.378775,11.829894,-38.590889,,,,,,,
1508184083.022078,0.093382,0.387418,-2.944825,-4.111938,-1.455231,-0.534974,0.086336,-0.377799,-0.921853,-0.179613,-0.348153,-0.325995,24.091133,15.028300,-38.302124,,,,,,,
1508184083.042091,0.060528,0.280560,-2.952662,-6.135923,-2.050521,-0.902294,0.058126,-0.276894,-0.959141,-0.151616,-0.485267,-0.447414,23.045368,17.849133,-37.730686,,,,,,,
1508184083.062105,0.020202,0.124267,-2.966504,-8.442625,-1.783676,-0.882040,0.020045,-0.123947,-0.992086,-0.209788,-0.470795,-0.698725,21.086168,23.093145,-35.991184,,,,,,,
1508184083.082106,0.011330,-0.032446,-2.973438,-6.952900,0.302524,-0.239510,0.011324,0.032441,-0.999409,-0.496065,1.093902,-1.222743,19.578348,30.366587,-31.110191,,,,,,,
1508184083.102126,0.020803,-0.109971,-2.977314,-1.791230,0.219545,-0.407456,0.020676,0.109749,-0.993744,-0.002365,1.277213,-1.670715,14.556848,33.043671,-27.673735,,,,,,,
1508184083.122128,0.007645,-0.090462,-3.000770,2.202658,-0.909215,-1.635258,0.007614,0.090338,-0.995882,-0.008331,0.970682,-1.455748,14.395149,33.432159,-27.289045,,,,,,,
1508184083.142135,-0.013970,-0.040470,-3.039075,2.290074,-0.769085,-1.939119,-0.013958,0.040459,-0.999084,-0.468785,-0.306435,-0.728638,12.072742,32.348289,-29.621931,,,,,,,
1508184083.162147,-0.015022,-0.002463,-3.075341,1.597950,0.372793,-1.826137,-0.015022,0.002463,-0.999884,-0.465768,-0.112570,-0.429086,10.697309,31.532505,-30.998232,,,,,,,
1508184083.182137,-0.004017,0.025236,-3.113665,1.316862,0.460504,-1.972215,-0.004015,-0.025233,-0.999674,-0.272047,-0.089223,-0.421103,10.257430,31.247908,-31.432070,,,,,,,
1508184083.202132,-0.001002,0.055216,3.130341,1.661284,-0.193679,-1.950191,-0.001000,-0.055187,-0.998475,-0.002158,0.044186,-0.254363,8.774585,30.476990,-32.615662,,,,,,,
1508184083.222168,-0.009671,0.094912,3.090916,2.128235,-0.759314,-2.010581,-0.009628,-0.094770,-0.995453,-0.005951,0.037274,-0.109436,7.304280,29.558847,-33.801533,,,,,,,
1508184083.242177,-0.020536,0.139821,3.049994,2.210346,-0.729388,-2.070790,-0.020334,-0.139366,-0.990032,0.004724,0.043358,-0.020039,6.441986,28.959993,-34.488274,,,,,,,
1508184083.262171,-0.025807,0.183963,3.009087,2.124043,-0.504581,-2.081450,-0.025369,-0.182927,-0.982799,0.169976,0.080602,0.161998,6.699590,28.105835,-36.463173,,,,,,,
1508184083.282189,-0.024374,0.225982,2.967490,2.029273,-0.276640,-2.060159,-0.023752,-0.224063,-0.974285,0.286020,0.109333,0.229153,5.246472,26.819408,-37.650753,,,,,,,
1508184083.302193,-0.022877,0.267877,2.928192,2.054152,-0.548610,-1.895222,-0.022059,-0.264685,-0.964083,0.311091,0.133292,0.251634,4.599553,26.148560,-38.203171,,,,,,,
1508184083.322182,-0.025915,0.307929,2.890395,1.860017,-0.702055,-1.844867,-0.024693,-0.303086,-0.952643,0.391636,0.153245,0.393027,3.816727,24.671814,-40.368176,,,,,,,
1508184083.342209,-0.026960,0.341677,2.852627,1.498146,-0.623163,-1.831878,-0.025398,-0.335068,-0.941852,0.446831,0.219330,0.393954,2.383152,23.373779,-41.241272,,,,,,,
1508184083.362195,-0.022302,0.368033,2.816097,1.169142,-0.254875,-1.649303,-0.020807,-0.359781,-0.932805,0.491617,0.269662,0.392110,1.717894,22.811527,-41.587719,,,,,,,
1508184083.382216,-0.014386,0.389933,2.785425,1.015838,-0.163876,-1.324220,-0.013305,-0.380127,-0.924839,0.625473,0.355575,0.305958,1.237795,21.922375,-43.336040,,,,,,,
1508184083.402230,-0.009303,0.408966,2.761875,0.885606,-0.233797,-0.959501,-0.008536,-0.397661,-0.917493,0.684668,0.362291,0.324612,0.564674,21.097782,-43.757286,,,,,,,
1508184083.422219,-0.006031,0.424352,2.745038,0.705442,-0.134218,-0.660113,-0.005496,-0.411730,-0.911289,0.698855,0.385012,0.321216,0.271252,20.724854,-43.937935,,,,,,,
1508184083.442244,-0.003875,0.436999,2.734289,0.559578,-0.108051,-0.409802,-0.003511,-0.423223,-0.906019,0.650361,0.401494,0.289381,-0.297393,19.801731,-44.361450,,,,,,,
1508184083.462234,-0.001612,0.444367,2.728352,0.255948,0.055609,-0.178428,-0.001456,-0.429886,-0.902882,0.635885,0.374786,0.271656,-0.474113,19.404892,-44.534935,,,,,,,
1508184083.482247,0.003911,0.445467,2.727651,-0.058933,0.403560,0.051349,0.003529,-0.430879,-0.902403,0.556148,0.350709,0.276716,-0.421963,19.287313,-44.586510,,,,,,,
1508184083.502242,0.013397,0.441572,2.731962,-0.278256,0.642833,0.281563,0.012111,-0.427361,-0.904000,0.498448,0.246316,0.295311,0.150748,19.411350,-44.534393,,,,,,,
1508184083.522259,0.022814,0.435107,2.741751,-0.336438,0.667953,0.511564,0.020687,-0.421507,-0.906589,0.465794,0.233580,0.287983,0.699060,19.616383,-44.439217,,,,,,,
1508184083.542256,0.030651,0.427227,2.754126,-0.478543,0.674238,0.583021,0.027892,-0.414348,-0.909691,0.368287,0.172893,0.290794,1.486367,19.916451,-44.286125,,,,,,,
1508184083.562270,0.039986,0.415736,2.770082,-0.657191,0.866707,0.774431,0.036570,-0.403863,-0.914088,0.229101,0.144479,0.244197,2.608347,20.467690,-43.981876,,,,,,,
1508184083.582293,0.050941,0.402819,2.788204,-0.666890,0.911410,0.794050,0.046844,-0.392013,-0.918766,0.193085,0.130859,0.205906,3.441075,20.878086,-43.730995,,,,,,,
1508184083.602300,0.064342,0.391163,2.805469,-0.609728,1.085096,0.760565,0.059441,-0.381264,-0.922553,0.151237,0.117363,0.150275,4.583411,21.389202,-43.377754,,,,,,,
1508184083.622306,0.080265,0.380653,2.824047,-0.567926,1.170106,0.859533,0.074440,-0.371527,-0.925433,0.124672,0.087805,0.025973,6.201801,21.931602,-42.903122,,,,,,,
1508184083.642313,0.095421,0.374633,2.844784,-0.245179,1.094126,0.993681,0.088668,-0.365931,-0.926408,0.095154,0.077952,-0.017195,7.242822,22.168480,-42.617310,,,,,,,
1508184083.662316,0.106825,0.375223,2.869465,-0.042837,0.985962,1.256342,0.099204,-0.366480,-0.925122,0.011087,-0.035207,0.022641,8.273670,22.209944,-42.407547,,,,,,,
1508184083.682323,0.111383,0.375020,2.900511,-0.336353,0.636154,1.499420,0.103427,-0.366291,-0.924734,-0.005741,-0.290615,0.073645,10.311001,21.957394,-42.091461,,,,,,,
1508184083.702334,0.105578,0.359385,2.936696,-1.415293,0.199352,1.663310,0.098650,-0.351699,-0.930901,0.003203,-0.458238,0.015541,11.147843,22.060940,-41.823151,,,,,,,
1508184083.722329,0.090655,0.316268,2.979215,-2.927542,-0.219306,1.863517,0.086041,-0.311022,-0.946500,-0.069272,-0.682554,-0.250262,12.040134,22.998362,-41.063923,,,,,,,
1508184083.742324,0.067874,0.241351,3.024158,-4.557967,-0.754609,1.812790,0.065856,-0.239015,-0.968780,-0.068084,-0.731933,-0.426636,12.844810,25.735722,-39.151230,,,,,,,
1508184083.762356,0.027353,0.120750,3.062895,-7.259912,-2.258321,1.419701,0.027150,-0.120457,-0.992347,-0.039449,-0.865017,-0.500924,12.810745,29.412888,-36.481533,,,,,,,
1508184083.782357,-0.015515,-0.057895,3.089090,-9.500883,-1.508783,1.360396,-0.015488,0.057862,-0.998204,-0.187713,-0.615052,-0.426204,12.389489,31.968313,-34.418930,,,,,,,
1508184083.802352,-0.012172,-0.223867,3.120029,-6.767022,0.415697,1.749492,-0.011868,0.222002,-0.974974,-0.500904,1.296385,-1.794893,12.916864,39.531139,-25.111326,,,,,,,
1508184083.822376,0.000690,-0.264120,-3.131459,1.086008,0.020400,1.346271,0.000666,0.261060,-0.965322,-0.188883,1.605319,-2.023432,14.413500,40.943432,-21.817923,,,,,,,
1508184083.842372,-0.008840,-0.171261,-3.114814,6.135936,-1.027341,0.488641,-0.008711,0.170425,-0.985332,0.083402,1.454636,-1.839711,14.892969,40.326614,-22.629602,,,,,,,
1508184083.862380,-0.026579,-0.044244,-3.104207,5.803156,-0.689540,0.469064,-0.026550,0.044229,-0.998669,-0.392792,-0.210916,-1.012165,14.792972,35.438866,-29.755505,,,,,,,
1508184083.882397,-0.018237,0.055894,-3.089355,4.569407,0.955115,0.656200,-0.018207,-0.055864,-0.998272,-0.446026,0.110689,-0.707965,15.193525,31.896152,-33.345577,,,,,,,
1508184083.902383,0.003835,0.138744,-3.078349,4.036489,1.085646,0.436115,0.003798,-0.138299,-0.990383,-0.279173,0.176446,-0.629139,15.744906,30.286064,-34.568592,,,,,,,
1508184083.922408,0.013622,0.223010,-3.070689,4.338572,0.206833,0.396384,0.013284,-0.221166,-0.975146,-0.011895,0.356130,-0.338468,17.206238,25.380011,-41.344757,,,,,,,
1508184083.942418,0.008390,0.313492,-3.066317,4.594250,-0.359523,0.190079,0.007981,-0.308382,-0.951229,-0.093918,0.382357,-0.048222,17.299734,21.490005,-43.456730,,,,,,,
1508184083.962408,0.001417,0.406258,-3.064127,4.622404,-0.222974,0.086779,0.001302,-0.395175,-0.918605,-0.130910,0.442812,0.066234,17.174503,19.431683,-44.463852,,,,,,,
1508184083.982406,0.000786,0.495512,-3.062839,4.330289,0.112689,0.066136,0.000692,-0.475482,-0.879725,-0.087636,0.436008,0.424693,16.992867,13.115717,-46.784706,,,,,,,
1508184084.002438,0.002893,0.576557,-3.060826,3.883046,0.141484,0.105507,0.002425,-0.545140,-0.838341,-0.006988,0.479955,0.590844,17.152939,9.151859,-47.661400,,,,,,,
1508184084.022429,0.002317,0.648207,-3.058552,3.388150,-0.049056,0.099045,0.001847,-0.603758,-0.797166,0.011458,0.554258,0.646104,17.221451,7.303576,-47.954853,,,,,,,
1508184084.042449,-0.002729,0.710218,-3.057160,2.946584,-0.278845,0.003542,-0.002069,-0.651999,-0.758217,0.035104,0.669745,0.830269,17.108967,2.430998,-48.486721,,,,,,,
1508184084.062459,-0.005660,0.764136,-3.060748,2.528328,-0.216496,-0.227369,-0.004086,-0.691913,-0.721969,0.014737,0.705783,0.933227,16.832453,-0.259781,-48.643494,,,,,,,
1508184084.082442,-0.002845,0.808373,-3.065977,2.003539,0.058249,-0.118998,-0.001965,-0.723165,-0.690673,0.013028,0.698262,0.949187,16.745722,-1.421967,-48.653336,,,,,,,
1508184084.102462,-0.000637,0.840831,-3.064654,1.388608,0.193225,0.113026,-0.000425,-0.745198,-0.666843,0.030637,0.713017,1.007572,16.851360,-4.183813,-48.457359,,,,,,,
1508184084.122481,0.000497,0.860800,-3.061356,0.757146,0.182827,0.064600,0.000324,-0.758364,-0.651831,0.028790,0.752368,1.041006,17.017017,-5.343473,-48.285164,,,,,,,
1508184084.142463,0.006223,0.867914,-3.061763,0.112242,0.325918,-0.029759,0.004023,-0.762982,-0.646407,0.026266,0.740628,1.011641,17.111673,-5.678272,-48.213444,,,,,,,
1508184084.162490,0.014431,0.863687,-3.062290,-0.368485,0.408078,-0.038054,0.009375,-0.760243,-0.649571,-0.032172,0.733021,0.881596,17.600077,-5.752604,-48.028461,,,,,,,
1508184084.182502,0.027184,0.852379,-3.067785,-0.686157,0.436378,-0.300536,0.017890,-0.752848,-0.657951,-0.087440,0.676600,0.792472,18.019535,-5.245224,-47.930916,,,,,,,
1508184084.202493,0.046892,0.832799,-3.080161,-1.131421,0.605222,-0.513779,0.031538,-0.739817,-0.672068,-0.099470,0.604319,0.760554,18.249184,-4.830076,-47.887642,,,,,,,
1508184084.222487,0.072333,0.804409,-3.095723,-1.537931,0.735635,-0.690238,0.050122,-0.720421,-0.691723,-0.045117,0.543145,0.523480,19.199846,-2.843885,-47.674591,,,,,,,
1508184084.242496,0.098294,0.766897,-3.113255,-1.972336,0.599617,-0.802034,0.070664,-0.693904,-0.716592,-0.020753,0.484599,0.448037,19.742205,-1.450718,-47.515568,,,,,,,
1508184084.262521,0.116208,0.723427,-3.128105,-2.111472,0.293844,-0.759108,0.086907,-0.661957,-0.744487,-0.010155,0.394440,0.261409,20.269201,0.766544,-47.309196,,,,,,,
1508184084.282515,0.130713,0.684068,3.141518,-1.688928,0.329971,-0.766347,0.101015,-0.631951,-0.768397,-0.167269,0.461236,0.089503,20.570942,3.539257,-47.052086,,,,,,,
1508184084.302532,0.147801,0.652882,3.125014,-1.411295,0.343019,-0.934154,0.116977,-0.607478,-0.785676,-0.146060,0.392238,0.066270,20.759865,4.886612,-46.848022,,,,,,,
1508184084.322549,0.164687,0.616987,3.105803,-1.857548,0.190039,-1.085148,0.133717,-0.578581,-0.804590,0.086163,0.123884,-0.019797,20.961386,6.656326,-46.539253,,,,,,,
1508184084.342543,0.173013,0.569001,3.091884,-2.458249,-0.101163,-0.812833,0.145027,-0.538791,-0.829863,0.171898,-0.109510,-0.247301,20.901237,9.559359,-46.058067,,,,,,,
1508184084.362563,0.162902,0.517822,3.090892,-2.542331,-0.794538,-0.314348,0.140920,-0.494989,-0.857396,0.153071,-0.144003,-0.325740,20.613869,11.477684,-45.748440,,,,,,,
1508184084.382546,0.140168,0.462648,3.096425,-2.989071,-1.111220,-0.104690,0.125022,-0.446319,-0.886097,0.160302,-0.339951,-0.328975,19.785774,13.949360,-45.426060,,,,,,,
1508184084.402556,0.108802,0.387732,3.105454,-4.308009,-1.552015,-0.037597,0.100527,-0.378090,-0.920295,0.173643,-0.766609,-0.561929,13.768229,14.552991,-44.289902,,,,,,,
1508184084.422583,0.066260,0.278650,3.113590,-6.298640,-2.327781,-0.182666,0.063658,-0.275057,-0.959318,0.204683,-0.890790,-0.625429,12.637260,17.676249,-43.483315,,,,,,,
1508184084.442574,0.008960,0.110968,3.111731,-9.728990,-3.068863,-0.446583,0.008904,-0.110740,-0.993809,0.200049,-1.145561,-0.629039,10.448106,23.445461,-41.280701,,,,,,,
1508184084.462569,-0.034225,-0.107188,3.108627,-10.958939,-1.156216,0.496936,-0.034022,0.106983,-0.993679,-0.314855,0.429349,-0.792164,7.650641,33.293335,-34.582802,,,,,,,
1508184084.482605,-0.021046,-0.267356,3.134221,-5.322193,0.576817,1.974258,-0.020296,0.264183,-0.964259,-0.348661,1.082192,-1.613881,8.000083,38.005642,-29.232147,,,,,,,
1508184084.502602,-0.016487,-0.258516,-3.118989,3.529116,-0.729922,0.713404,-0.015938,0.255646,-0.966639,-0.157524,1.629684,-2.251012,9.337689,39.921173,-26.116205,,,,,,,
1508184084.522597,-0.045102,-0.140586,-3.126039,6.335908,-1.521884,-0.990763,-0.044642,0.140123,-0.989127,0.328669,1.133726,-1.708734,9.165138,36.676243,-30.558178,,,,,,,
1508184084.542626,-0.058170,-0.044134,-3.133875,4.185261,0.340230,-0.231356,-0.058080,0.044120,-0.997337,-0.271510,-0.681922,-0.947564,8.023237,34.096275,-33.704903,,,,,,,
1508184084.562617,-0.030071,0.020712,-3.126519,2.809406,1.837396,0.217136,-0.030060,-0.020710,-0.999334,-0.430420,-0.171673,-0.651591,8.061328,31.953732,-35.734058,,,,,,,
1508184084.582625,0.004368,0.074709,-3.128221,2.809223,1.423886,-0.216183,0.004356,-0.074640,-0.997201,0.226372,0.087045,-0.502067,10.031289,28.756784,-37.886269,,,,,,,
1508184084.602647,0.018005,0.140248,-3.131129,3.583834,0.220665,-0.026574,0.017828,-0.139789,-0.990021,0.257471,0.214862,-0.406174,10.693072,26.404537,-39.387909,,,,,,,
1508184084.622655,0.014819,0.219766,-3.131605,4.152710,-0.248401,0.084299,0.014462,-0.218001,-0.975841,0.098682,0.324523,-0.136769,10.704615,24.141768,-40.810966,,,,,,,
1508184084.642645,0.013541,0.304500,-3.130358,4.200912,0.126496,0.110815,0.012918,-0.299816,-0.953910,-0.077035,0.275128,0.343512,10.590753,19.713961,-43.152576,,,,,,,
1508184084.662667,0.021860,0.383446,-3.129297,3.747074,0.564364,0.138927,0.020271,-0.374119,-0.927159,-0.016060,0.224918,0.545888,10.916032,16.127960,-44.538498,,,,,,,
1508184084.682675,0.031671,0.451385,-3.127437,3.176134,0.453634,0.183614,0.028494,-0.436212,-0.899392,0.021509,0.277277,0.605356,11.195364,14.463928,-45.037842,,,,,,,
1508184084.702667,0.036307,0.507789,-3.126315,2.602219,0.136479,0.112936,0.031718,-0.486247,-0.873246,0.065251,0.355723,0.719040,11.810091,10.160429,-46.046024,,,,,,,
1508184084.722672,0.037478,0.553592,-3.126872,2.124012,0.019568,0.040349,0.031873,-0.525746,-0.850044,0.031558,0.437016,0.794045,11.882935,8.432358,-46.374992,,,,,,,
1508184084.742684,0.039041,0.591689,-3.127823,1.783481,0.101683,0.037282,0.032395,-0.557764,-0.829367,-0.014985,0.501978,0.851401,11.903371,6.941664,-46.616219,,,,,,,
1508184084.762679,0.042544,0.622567,-3.127399,1.368189,0.216690,0.108434,0.034552,-0.583122,-0.811649,-0.041281,0.506813,0.928577,12.081914,4.494072,-46.869812,,,,,,,
1508184084.782709,0.044651,0.641710,-3.125583,0.665466,0.095461,0.092592,0.035757,-0.598566,-0.800275,0.011881,0.483515,0.856519,12.268784,3.406427,-46.912918,,,,,,,
1508184084.802712,0.046026,0.645492,-3.125878,-0.072217,0.066126,-0.061043,0.036753,-0.601591,-0.797958,0.006262,0.484327,0.836593,12.309566,3.131865,-46.921371,,,,,,,
1508184084.822707,0.050999,0.637431,-3.128693,-0.551428,0.264569,-0.156330,0.040966,-0.595133,-0.802583,-0.092190,0.524073,0.764817,12.434928,3.333803,-46.874374,,,,,,,
1508184084.842729,0.061040,0.625098,-3.131384,-0.611872,0.441412,-0.155650,0.049467,-0.585177,-0.809396,-0.094664,0.543505,0.613183,12.778816,3.926371,-46.735794,,,,,,,
1508184084.862710,0.071297,0.611824,-3.136963,-0.715814,0.285223,-0.343109,0.058315,-0.574362,-0.816522,-0.067150,0.493445,0.582803,12.970911,4.233536,-46.655991,,,,,,,
1508184084.882725,0.078878,0.590347,3.138122,-1.296590,0.087431,-0.441103,0.065460,-0.556649,-0.828165,-0.050720,0.246011,0.433740,13.270130,5.504488,-46.438698,,,,,,,
1508184084.902751,0.086370,0.557437,3.130392,-1.719807,0.225036,-0.483301,0.073203,-0.529013,-0.845450,-0.077995,0.320731,0.323340,13.334830,7.020498,-46.215187,,,,,,,
1508184084.922739,0.098000,0.522394,3.120731,-1.654322,0.391423,-0.596658,0.084793,-0.498957,-0.862469,-0.083008,0.303385,0.303265,13.409669,7.885500,-46.053757,,,,,,,
1508184084.942748,0.107393,0.491606,3.113048,-1.403770,0.154552,-0.433466,0.094494,-0.472043,-0.876497,-0.031627,0.209775,0.185197,13.728178,10.323391,-45.474316,,,,,,,
1508184084.962772,0.109789,0.465126,3.106532,-1.247859,-0.120280,-0.451989,0.097928,-0.448535,-0.888384,-0.038907,0.150806,0.116976,13.669482,11.640343,-45.172962,,,,,,,
1508184084.982766,0.110505,0.438199,3.099197,-1.364708,-0.095664,-0.494911,0.099861,-0.424310,-0.899994,-0.041954,0.075677,0.081146,13.556816,12.266529,-45.041023,,,,,,,
1508184085.002785,0.112757,0.406792,3.092894,-1.614024,0.003280,-0.402324,0.103336,-0.395665,-0.912563,0.095562,-0.082591,-0.125783,13.268717,14.352957,-44.507107,,,,,,,
1508184085.022792,0.110197,0.374202,3.091368,-1.561981,-0.310419,-0.148299,0.102364,-0.365530,-0.925154,0.131965,-0.154916,-0.166811,13.103800,15.874609,-44.036758,,,,,,,
1508184085.042794,0.094903,0.343587,3.095853,-1.626496,-0.955482,0.158602,0.089222,-0.336866,-0.937316,0.116039,-0.250185,-0.148607,12.921442,16.566532,-43.835316,,,,,,,
1508184085.062807,0.067036,0.296928,3.103780,-2.915874,-1.327999,0.162839,0.064054,-0.292584,-0.954092,0.195818,-0.632266,-0.312326,11.682233,18.942867,-43.216225,,,,,,,
1508184085.082789,0.036256,0.216908,3.109509,-4.683398,-1.612653,-0.030039,0.035398,-0.215211,-0.975926,0.258501,-0.661147,-0.592662,10.541348,21.961304,-42.065781,,,,,,,
1508184085.102819,-0.006205,0.092779,3.104397,-7.331854,-2.524924,-0.549039,-0.006179,-0.092646,-0.995680,0.393035,-0.756643,-0.687517,9.813074,24.023827,-41.103626,,,,,,,
1508184085.122826,-0.047669,-0.085754,3.091086,-9.280078,-1.287786,0.027345,-0.047476,0.085649,-0.995194,0.225607,0.143462,-0.815018,6.729287,32.970467,-35.080105,,,,,,,
1508184085.142834,-0.047794,-0.239827,3.106739,-5.983390,0.226033,1.685542,-0.046409,0.237535,-0.970270,0.060050,0.715056,-1.106375,6.632300,37.282562,-30.479046,,,,,,,
1508184085.162829,-0.043590,-0.272491,3.138890,1.114504,-0.651608,1.273888,-0.041968,0.269132,-0.962189,0.477973,1.582339,-1.817764,9.939388,39.596188,-26.243359,,,,,,,
1508184085.182845,-0.062887,-0.195075,-3.133445,4.912186,-1.095065,-0.108722,-0.061654,0.193840,-0.979094,0.375665,0.612755,-1.071199,10.563226,38.091919,-28.156481,,,,,,,
1508184085.202855,-0.074288,-0.106539,-3.125236,3.760893,-0.213764,0.392252,-0.073799,0.106337,-0.991588,0.122871,-0.047499,-0.999242,10.097868,35.926735,-31.026861,,,,,,,
1508184085.222861,-0.055917,-0.050532,-3.104162,2.300876,1.332105,1.000047,-0.055816,0.050510,-0.997163,0.003616,-0.379398,-0.455413,10.479311,33.484970,-33.530647,,,,,,,
1508184085.242843,-0.024482,-0.013739,-3.084939,1.774725,1.440092,0.866654,-0.024477,0.013739,-0.999606,0.290392,-0.022314,-0.311002,12.452782,31.390282,-34.856018,,,,,,,
1508184085.262875,-0.008079,0.023416,-3.063005,1.954168,0.439179,1.174268,-0.008076,-0.023414,-0.999693,0.302617,0.111854,-0.230989,15.649674,31.824612,-34.882057,,,,,,,
1508184085.282876,-0.009668,0.065518,-3.037781,2.213253,-0.211957,1.281616,-0.009648,-0.065471,-0.997808,0.217655,0.213726,-0.179469,16.139050,30.936638,-35.453228,,,,,,,
1508184085.302871,-0.015855,0.112503,-3.009758,2.441177,-0.092926,1.390614,-0.015754,-0.112265,-0.993553,-0.130150,0.255713,0.099953,17.114527,27.826832,-37.513149,,,,,,,
1508184085.322896,-0.016616,0.161628,-2.982026,2.486736,0.306737,1.284552,-0.016399,-0.160925,-0.986830,-0.217580,0.257376,0.251860,17.878902,25.467543,-38.810116,,,,,,,
1508184085.342902,-0.010737,0.209907,-2.956851,2.383733,0.610631,1.145868,-0.010501,-0.208369,-0.977994,-0.224072,0.273448,0.317243,18.336239,24.268616,-39.361057,,,,,,,
1508184085.362899,-0.004126,0.255666,-2.934841,2.242301,0.521463,1.007581,-0.003992,-0.252889,-0.967487,-0.266440,0.244161,0.481311,18.818460,22.603390,-40.064766,,,,,,,
1508184085.382917,-0.002395,0.298639,-2.915463,2.090641,0.266131,0.864248,-0.002289,-0.294220,-0.955735,-0.325027,0.263107,0.607148,19.568495,20.462482,-40.848434,,,,,,,
1508184085.402901,-0.003009,0.337395,-2.900717,1.832084,0.176243,0.575710,-0.002839,-0.331030,-0.943616,-0.344085,0.299551,0.644208,19.837749,19.450695,-41.211258,,,,,,,
1508184085.422907,-0.001577,0.369183,-2.891283,1.433114,0.282167,0.392135,-0.001470,-0.360853,-0.932621,-0.393076,0.236723,0.743168,20.396650,16.897661,-42.055668,,,,,,,
1508184085.442936,0.001854,0.392218,-2.883136,0.988820,0.344084,0.380908,0.001713,-0.382238,-0.924062,-0.396015,0.238424,0.750768,20.780293,15.674879,-42.340420,,,,,,,
1508184085.462945,0.005954,0.407617,-2.876072,0.654605,0.342261,0.269223,0.005466,-0.396423,-0.918052,-0.388950,0.272186,0.732078,20.984659,15.196718,-42.413879,,,,,,,
1508184085.482924,0.009973,0.417496,-2.872379,0.391253,0.219056,0.120859,0.009116,-0.405473,-0.914062,-0.373664,0.253388,0.680892,21.500494,14.238533,-42.487957,,,,,,,
1508184085.502939,0.013393,0.422459,-2.871678,0.175796,0.185315,-0.025640,0.012215,-0.410004,-0.912002,-0.377633,0.290833,0.626891,21.685278,13.951321,-42.489326,,,,,,,
1508184085.522966,0.020109,0.424092,-2.876229,0.036396,0.319100,-0.323907,0.018327,-0.411493,-0.911229,-0.378205,0.313486,0.586674,21.758217,13.896476,-42.470009,,,,,,,
1508184085.542972,0.035051,0.425699,-2.885493,0.175119,0.662342,-0.460144,0.031916,-0.412958,-0.910191,-0.320674,0.366205,0.446552,22.116623,14.027517,-42.241180,,,,,,,
1508184085.562979,0.051984,0.432235,-2.898296,0.431961,0.454918,-0.640733,0.047182,-0.418902,-0.906805,-0.227540,0.317507,0.333364,22.502975,14.018019,-42.039803,,,,,,,
1508184085.582986,0.062350,0.438307,-2.915628,0.228354,-0.018675,-0.833110,0.056419,-0.424407,-0.903712,-0.162575,0.243697,0.308009,22.574774,13.986289,-42.011868,,,,,,,
1508184085.602993,0.065680,0.434294,-2.935284,-0.394752,-0.365609,-0.921446,0.059540,-0.420770,-0.905211,-0.125077,-0.004813,0.347869,22.143263,14.388918,-42.105446,,,,,,,
1508184085.623000,0.062164,0.414000,-2.952985,-1.338354,-0.684075,-0.822285,0.056876,-0.402275,-0.913750,-0.119757,-0.097984,0.369820,21.673973,15.070888,-42.111053,,,,,,,
1508184085.643008,0.046189,0.367402,-2.967398,-2.970295,-1.344166,-0.794427,0.043091,-0.359192,-0.932268,-0.052551,-0.336151,0.184862,20.773178,16.703415,-41.948833,,,,,,,
1508184085.663009,0.012272,0.278959,-2.982646,-5.351923,-2.312689,-0.916147,0.011797,-0.275355,-0.961270,-0.047365,-0.461630,-0.117358,18.746355,20.783672,-41.071239,,,,,,,
1508184085.683020,-0.033862,0.135326,-3.003214,-8.169975,-2.327169,-0.779469,-0.033546,-0.134913,-0.990289,-0.262657,-0.276708,-0.349814,16.281313,26.316154,-38.892319,,,,,,,
1508184085.703029,-0.052907,-0.029648,-3.019292,-7.798736,-0.025078,-0.354623,-0.052859,0.029644,-0.998162,-0.709318,0.965794,-0.824790,14.981839,31.158188,-35.706375,,,,,,,
1508184085.723006,-0.034170,-0.128476,-3.037757,-2.799518,1.215769,-0.906321,-0.033882,0.128123,-0.991179,-0.316598,1.544438,-1.589082,11.378353,35.032936,-29.549503,,,,,,,
1508184085.743043,-0.025510,-0.116474,-3.065512,2.132949,0.182792,-1.674507,-0.025335,0.116210,-0.992901,0.089086,1.090943,-1.374103,11.028963,35.696854,-28.879812,,,,,,,
1508184085.763039,-0.035095,-0.053277,-3.100610,3.150944,-0.513743,-1.865634,-0.035038,0.053252,-0.997966,0.063237,0.593553,-1.215581,10.433446,35.161877,-29.744452,,,,,,,
1508184085.783034,-0.034470,-0.000820,-3.133980,2.265677,0.523648,-1.681683,-0.034463,0.000820,-0.999406,-0.369361,-0.128536,-0.470519,8.343630,32.915085,-32.816582,,,,,,,
1508184085.803062,-0.015794,0.037718,3.116488,1.728016,1.023429,-1.707721,-0.015782,-0.037709,-0.999164,-0.203990,-0.114696,-0.278851,7.778401,31.835300,-33.999367,,,,,,,
1508184085.823070,0.001958,0.072409,3.084115,1.785524,0.548036,-1.565449,0.001952,-0.072346,-0.997378,-0.059448,-0.112789,-0.244596,7.587441,31.380142,-34.462505,,,,,,,
1508184085.843076,0.004386,0.112640,3.052366,2.149778,-0.358504,-1.597360,0.004358,-0.112402,-0.993653,0.046774,-0.049417,-0.104201,6.559762,29.759527,-36.073353,,,,,,,
1508184085.863078,-0.003102,0.157037,3.019145,2.203851,-0.627882,-1.667069,-0.003064,-0.156393,-0.987690,0.016308,-0.086771,0.061619,5.223903,28.329298,-37.418026,,,,,,,
1508184085.883091,-0.007539,0.198860,2.985496,1.979695,-0.437180,-1.651539,-0.007391,-0.197552,-0.980264,0.029287,-0.076480,0.106104,4.524989,27.585991,-38.058960,,,,,,,
