timestamp(unix),attitude_roll(radians),attitude_pitch(radians),attitude_yaw(radians),rotation_rate_x(radians/s),rotation_rate_y(radians/s),rotation_rate_z(radians/s),gravity_x(G),gravity_y(G),gravity_z(G),user_acc_x(G),user_acc_y(G),user_acc_z(G),magnetic_field_x(microteslas),magnetic_field_y(microteslas),magnetic_field_z(microteslas),latitude(degree),longitude(degree),altitude(meter),speed(m/s),course(degree),timestamp(unix),User Mark
1508184029.687607,-0.076799,0.056123,3.044320,-0.009892,0.014906,-0.009641,-0.076603,-0.056094,-0.995483,0.001301,0.010897,-0.018342,20.368580,28.111698,-46.194698,,,,,,,
1508184029.707615,-0.075976,0.056511,3.044073,0.029578,0.053250,-0.012360,-0.075781,-0.056481,-0.995524,0.003760,-0.003090,-0.012991,20.368580,28.111698,-46.194698,,,,,,,
1508184029.727622,-0.074841,0.056962,3.043890,0.009251,0.055379,-0.009176,-0.074650,-0.056932,-0.995583,0.014210,-0.018538,0.011315,20.415146,28.112625,-46.173576,,,,,,,
1508184029.747611,-0.073329,0.057119,3.043732,-0.053829,0.050048,0.001612,-0.073143,-0.057088,-0.995686,0.025414,-0.010875,0.003636,20.502785,28.086969,-46.150352,,,,,,,
1508184029.767636,-0.071758,0.055441,3.043611,-0.075223,0.041545,-0.003581,-0.071587,-0.055412,-0.995894,0.022530,0.005806,-0.006441,20.537983,28.131432,-46.107601,,,,,,,
1508184029.787642,-0.070166,0.053889,3.043282,-0.016292,0.004270,-0.012682,-0.070007,-0.053862,-0.996091,0.019332,0.011977,-0.017001,20.622839,28.211811,-46.020527,,,,,,,
1508184029.807649,-0.069011,0.053956,3.043166,0.012608,0.022338,0.006228,-0.068856,-0.053930,-0.996168,0.009530,0.002355,0.001676,20.685455,28.254133,-45.966434,,,,,,,
1508184029.827656,-0.067981,0.054358,3.043325,0.023229,0.040461,-0.001507,-0.067829,-0.054331,-0.996217,0.010456,0.003108,-0.001083,20.722347,28.240444,-45.958229,,,,,,,
1508184029.847662,-0.065789,0.054828,3.043328,-0.049572,0.072407,0.015146,-0.065642,-0.054800,-0.996337,0.019057,-0.018869,-0.000138,20.783997,28.213383,-45.947006,,,,,,,
1508184029.867667,-0.062978,0.052530,3.043728,-0.064531,0.076654,0.026824,-0.062850,-0.052506,-0.996641,0.015502,0.029313,-0.006716,20.959505,28.257511,-45.840042,,,,,,,
1508184029.887676,-0.060560,0.051210,3.043730,0.020821,0.121446,-0.009078,-0.060443,-0.051188,-0.996858,0.014331,0.038493,0.001985,21.044018,28.320383,-45.762451,,,,,,,
1508184029.907682,-0.056792,0.052076,3.044059,0.069254,0.082988,0.042625,-0.056684,-0.052053,-0.997034,0.042036,-0.006404,0.016901,21.167410,28.375507,-45.671307,,,,,,,
1508184029.927689,-0.056455,0.052911,3.045595,0.020451,-0.010828,0.086675,-0.056346,-0.052887,-0.997010,0.021006,-0.021149,0.023102,21.344040,28.255795,-45.663322,,,,,,,
1508184029.947676,-0.056667,0.052216,3.047319,-0.057776,0.022223,0.081989,-0.056560,-0.052192,-0.997034,-0.001546,-0.002800,0.016657,21.361866,28.232944,-45.669117,,,,,,,
1508184029.967676,-0.054943,0.050716,3.048358,-0.074239,0.119241,0.043274,-0.054845,-0.050694,-0.997207,0.001348,0.018147,-0.002472,21.477306,28.260935,-45.597607,,,,,,,
1508184029.987693,-0.052794,0.049261,3.049049,-0.066712,0.095824,0.032945,-0.052706,-0.049241,-0.997395,0.042070,0.022355,-0.008479,21.605270,28.309486,-45.506947,,,,,,,
1508184030.007716,-0.049250,0.047591,3.049906,-0.035671,0.131966,0.069717,-0.049174,-0.047573,-0.997657,0.045634,0.023129,-0.000680,21.660131,28.331760,-45.466984,,,,,,,
1508184030.027723,-0.046888,0.047325,3.052149,0.010631,0.099878,0.129861,-0.046819,-0.047307,-0.997783,0.053990,0.013677,-0.002126,21.955917,28.349014,-45.314106,,,,,,,
1508184030.047721,-0.045967,0.047873,3.055053,0.039788,0.036973,0.154210,-0.045898,-0.047855,-0.997799,0.040969,0.003665,0.018750,22.096069,28.264111,-45.299011,,,,,,,
1508184030.067737,-0.044451,0.048078,3.058445,-0.022276,0.059322,0.174192,-0.044385,-0.048060,-0.997858,0.025922,-0.004751,0.031061,22.157742,28.212330,-45.301167,,,,,,,
1508184030.087742,-0.043510,0.046864,3.061502,-0.065148,0.046615,0.141353,-0.043448,-0.046847,-0.997957,0.011664,-0.003140,0.014482,22.403425,28.127348,-45.233128,,,,,,,
1508184030.107741,-0.041956,0.045517,3.064325,-0.047101,0.105181,0.150087,-0.041900,-0.045502,-0.998085,-0.011749,-0.000153,-0.001457,22.503811,28.126076,-45.184059,,,,,,,
1508184030.127757,-0.040361,0.044766,3.067299,0.010706,0.084947,0.139674,-0.040309,-0.044751,-0.998185,0.002971,0.014981,-0.017044,22.671234,28.112806,-45.108559,,,,,,,
1508184030.147763,-0.039177,0.045151,3.069895,0.027830,0.068991,0.126030,-0.039127,-0.045136,-0.998214,-0.007626,0.014099,-0.002076,22.787647,28.057915,-45.084068,,,,,,,
1508184030.167746,-0.037757,0.045122,3.072129,0.005078,0.130838,0.096360,-0.037709,-0.045107,-0.998270,0.006612,-0.007674,0.015803,22.971964,27.954920,-45.054501,,,,,,,
1508184030.187777,-0.035203,0.044317,3.073925,-0.054807,0.114880,0.093438,-0.035161,-0.044302,-0.998399,0.017323,-0.007745,0.007005,23.103428,27.932592,-45.001099,,,,,,,
1508184030.207783,-0.033206,0.042863,3.076048,-0.080260,0.072216,0.124998,-0.033170,-0.042850,-0.998531,0.012174,0.002170,-0.004307,23.241629,27.933754,-44.929153,,,,,,,
1508184030.227772,-0.031640,0.041373,3.079083,-0.053419,0.085977,0.165298,-0.031607,-0.041362,-0.998644,0.022788,0.037623,-0.022413,23.458410,27.943069,-44.810539,,,,,,,
1508184030.247798,-0.030589,0.041355,3.082379,0.038731,0.045472,0.166883,-0.030558,-0.041343,-0.998678,0.021738,0.037604,-0.022380,23.577267,27.905579,-44.771511,,,,,,,
1508184030.267804,-0.029485,0.041971,3.086305,0.080751,0.000629,0.215485,-0.029455,-0.041958,-0.998685,0.033407,0.013974,-0.025759,23.780922,27.772556,-44.746506,,,,,,,
1508184030.287802,-0.029589,0.042832,3.091277,0.027384,0.004811,0.261315,-0.029558,-0.042818,-0.998646,0.026369,-0.004057,-0.019741,23.878899,27.643375,-44.774311,,,,,,,
1508184030.307801,-0.029116,0.042342,3.096447,-0.038086,0.063430,0.254116,-0.029086,-0.042329,-0.998680,0.020007,0.004823,-0.015663,24.031588,27.503162,-44.778969,,,,,,,
1508184030.327814,-0.027610,0.041159,3.101368,-0.041351,0.068781,0.242312,-0.027583,-0.041147,-0.998772,0.007716,-0.009497,-0.014793,24.289454,27.403389,-44.700935,,,,,,,
1508184030.347830,-0.026978,0.041141,3.105647,0.036684,0.043291,0.194639,-0.026952,-0.041129,-0.998790,-0.013178,-0.002236,-0.009617,24.419636,27.334877,-44.671947,,,,,,,
1508184030.367817,-0.026206,0.042786,3.109292,0.105867,0.139194,0.167605,-0.026179,-0.042773,-0.998742,-0.038091,0.000079,-0.010017,24.532101,27.237972,-44.669518,,,,,,,
1508184030.387845,-0.023117,0.044932,3.112001,0.107860,0.130788,0.112260,-0.023091,-0.044916,-0.998724,0.009984,-0.000341,-0.008661,24.784500,26.982363,-44.685318,,,,,,,
1508184030.407828,-0.020686,0.046637,3.114103,0.068243,0.140383,0.113217,-0.020662,-0.046620,-0.998699,-0.003172,-0.016734,0.001293,24.926199,26.873335,-44.672195,,,,,,,
1508184030.427858,-0.017811,0.048065,3.116732,0.068279,0.145677,0.129135,-0.017789,-0.048047,-0.998687,-0.007800,-0.002445,0.004836,25.063828,26.781662,-44.650238,,,,,,,
1508184030.447865,-0.016089,0.049741,3.119017,0.077981,0.093528,0.103226,-0.016069,-0.049720,-0.998634,-0.011077,-0.000390,-0.002739,25.339895,26.581306,-44.614128,,,,,,,
1508184030.467856,-0.014927,0.050739,3.120857,0.096128,0.079725,0.077821,-0.014907,-0.050717,-0.998602,-0.012345,0.020779,0.002539,25.422260,26.489090,-44.622124,,,,,,,
1508184030.487879,-0.013396,0.051999,3.122453,0.064068,0.072263,0.084351,-0.013377,-0.051976,-0.998559,0.004832,-0.004863,0.022149,25.514006,26.422333,-44.609337,,,,,,,
1508184030.507885,-0.011638,0.053345,3.124519,0.017240,0.029592,0.123392,-0.011621,-0.053319,-0.998510,0.016427,-0.007075,0.029134,25.668011,26.278261,-44.606087,,,,,,,
1508184030.527881,-0.011719,0.053324,3.127720,-0.003840,-0.013133,0.183741,-0.011702,-0.053299,-0.998510,0.015593,-0.001999,0.025137,25.758291,26.207235,-44.595825,,,,,,,
1508184030.547900,-0.012594,0.053136,3.131980,-0.005647,-0.080324,0.225236,-0.012576,-0.053111,-0.998509,0.011401,-0.000265,0.010854,25.840996,26.113998,-44.602676,,,,,,,
1508184030.567905,-0.015040,0.052533,3.136132,0.021080,-0.109026,0.192576,-0.015019,-0.052509,-0.998507,-0.004543,0.013950,0.013965,25.898598,25.987505,-44.643131,,,,,,,
1508184030.587912,-0.017477,0.052946,3.139948,0.004866,-0.061075,0.185495,-0.017452,-0.052922,-0.998446,-0.006138,-0.003841,0.018573,25.880507,25.881502,-44.715141,,,,,,,
1508184030.607919,-0.018318,0.052835,-3.139686,-0.001724,-0.017375,0.173137,-0.018292,-0.052810,-0.998437,-0.006641,0.003540,0.022988,25.905813,25.832134,-44.729034,,,,,,,
1508184030.627926,-0.019538,0.053542,-3.136187,-0.013398,-0.047203,0.174645,-0.019509,-0.053516,-0.998376,-0.004096,-0.014431,0.007776,25.990316,25.680597,-44.767258,,,,,,,
1508184030.647910,-0.021334,0.053236,-3.132613,-0.045478,-0.051462,0.176864,-0.021303,-0.053210,-0.998356,-0.017958,-0.015317,0.009785,26.004852,25.571898,-44.821007,,,,,,,
1508184030.667940,-0.022760,0.052062,-3.129493,-0.070269,-0.025828,0.144522,-0.022727,-0.052039,-0.998386,-0.016351,-0.007486,0.006321,26.026625,25.549301,-44.821255,,,,,,,
1508184030.687929,-0.024075,0.050576,-3.126787,-0.029785,0.016798,0.128945,-0.024042,-0.050554,-0.998432,-0.021002,0.010332,-0.011761,26.061239,25.516525,-44.819813,,,,,,,
1508184030.707938,-0.024013,0.050500,-3.124101,0.040852,0.018897,0.135259,-0.023980,-0.050479,-0.998437,-0.010917,0.010180,-0.013037,26.112524,25.476620,-44.812664,,,,,,,
1508184030.727955,-0.024604,0.051116,-3.121349,0.030275,-0.024773,0.133768,-0.024569,-0.051093,-0.998392,-0.008909,0.006828,-0.003912,26.153095,25.420710,-44.820755,,,,,,,
1508184030.747949,-0.025840,0.051752,-3.118705,-0.018907,-0.042860,0.128736,-0.025802,-0.051729,-0.998328,-0.008423,-0.012175,0.011679,26.204624,25.276070,-44.872429,,,,,,,
1508184030.767966,-0.027457,0.051185,-3.116100,-0.023206,-0.034344,0.130748,-0.027418,-0.051163,-0.998314,-0.013308,0.004288,-0.001442,26.200184,25.247486,-44.891113,,,,,,,
1508184030.787981,-0.029064,0.050404,-3.113502,0.020649,-0.037539,0.123297,-0.029023,-0.050383,-0.998308,-0.016372,0.015395,-0.008116,26.202408,25.185865,-44.924412,,,,,,,
1508184030.807987,-0.030977,0.051191,-3.111080,0.055988,-0.052454,0.118156,-0.030931,-0.051169,-0.998211,-0.016218,-0.007684,0.004482,26.194489,25.101063,-44.976463,,,,,,,
1508184030.827992,-0.033187,0.053029,-3.108745,0.037853,-0.081193,0.107923,-0.033135,-0.053005,-0.998044,-0.012596,-0.019643,0.007795,26.164845,24.988174,-45.056511,,,,,,,
1508184030.848001,-0.035712,0.054121,-3.106563,-0.009283,-0.065199,0.104527,-0.035652,-0.054095,-0.997899,-0.017616,-0.020169,0.006429,26.110678,24.856159,-45.160831,,,,,,,
1508184030.868007,-0.037887,0.053946,-3.104819,-0.010598,-0.021458,0.068706,-0.037823,-0.053920,-0.997829,-0.031132,-0.000477,0.003719,26.064400,24.776817,-45.231110,,,,,,,
1508184030.887992,-0.039250,0.054182,-3.103728,0.018325,-0.051259,0.050990,-0.039183,-0.054155,-0.997763,-0.006060,-0.002684,-0.004419,26.018217,24.751591,-45.271488,,,,,,,
1508184030.908021,-0.040824,0.054629,-3.102676,0.036546,-0.068296,0.044826,-0.040752,-0.054602,-0.997676,-0.004841,0.007223,-0.017872,25.982719,24.699907,-45.320084,,,,,,,
1508184030.928028,-0.041526,0.054477,-3.101899,0.035372,-0.038461,0.041195,-0.041452,-0.054450,-0.997656,0.012186,0.020514,-0.008997,25.939863,24.656319,-45.368340,,,,,,,
1508184030.948018,-0.042175,0.054931,-3.100602,-0.023454,-0.007627,0.077046,-0.042099,-0.054903,-0.997604,-0.002304,-0.022901,0.031890,25.945187,24.644163,-45.371899,,,,,,,
1508184030.968042,-0.042796,0.053795,-3.099419,-0.053280,-0.085324,0.048339,-0.042721,-0.053769,-0.997639,0.034252,0.012647,0.028492,25.975376,24.611893,-45.372147,,,,,,,
1508184030.988047,-0.045440,0.053392,-3.097996,-0.004850,-0.129100,0.093722,-0.045360,-0.053367,-0.997544,0.005809,-0.000954,0.003755,25.890598,24.615522,-45.418610,,,,,,,
1508184031.008048,-0.047513,0.053352,-3.096271,0.001308,-0.067270,0.069362,-0.047427,-0.053327,-0.997450,-0.003339,0.009244,-0.024706,25.836945,24.566425,-45.475708,,,,,,,
1508184031.028062,-0.047516,0.053376,-3.095455,0.008380,0.029746,0.028497,-0.047430,-0.053351,-0.997449,-0.006510,-0.003366,-0.023761,25.829134,24.550278,-45.488861,,,,,,,
1508184031.048067,-0.046456,0.054351,-3.095150,0.038217,0.051083,0.008971,-0.046370,-0.054324,-0.997446,0.005370,-0.019070,-0.014105,25.888174,24.511612,-45.476147,,,,,,,
1508184031.068074,-0.045596,0.055058,-3.094909,0.027581,0.032970,0.012441,-0.045511,-0.055030,-0.997447,0.004618,-0.033547,0.004558,25.943007,24.451553,-45.477230,,,,,,,
1508184031.088082,-0.045422,0.055264,-3.095070,-0.006720,0.005369,-0.030851,-0.045337,-0.055236,-0.997443,0.004688,-0.029588,0.014457,25.957663,24.437237,-45.476566,,,,,,,
1508184031.108004,-0.044985,0.054788,-3.096205,-0.091495,0.053388,-0.062407,-0.044902,-0.054760,-0.997489,-0.011250,-0.026996,0.005729,25.954960,24.495655,-45.446671,,,,,,,
1508184031.127991,-0.043752,0.053005,-3.097591,-0.077593,0.049136,-0.068754,-0.043676,-0.052981,-0.997640,0.007742,0.007311,-0.007792,25.963171,24.582756,-45.394920,,,,,,,
1508184031.147995,-0.042420,0.052651,-3.098947,0.016527,0.074660,-0.059598,-0.042349,-0.052626,-0.997716,0.011419,0.021483,-0.005687,25.968397,24.631649,-45.365417,,,,,,,
1508184031.168026,-0.040230,0.053471,-3.099922,0.033751,0.057583,-0.043369,-0.040162,-0.053446,-0.997763,0.029176,-0.000143,0.009527,26.017155,24.655563,-45.324474,,,,,,,
1508184031.188019,-0.039477,0.053611,-3.100533,-0.013180,0.026666,-0.024758,-0.039410,-0.053586,-0.997785,0.031384,-0.008899,0.024824,26.062126,24.653641,-45.299675,,,,,,,
1508184031.208041,-0.037948,0.052843,-3.101015,-0.044233,0.041576,-0.017487,-0.037886,-0.052818,-0.997885,0.029112,0.006920,0.038474,26.086540,24.680946,-45.270744,,,,,,,
1508184031.228037,-0.037121,0.051745,-3.101027,-0.059075,0.029798,0.014684,-0.037063,-0.051722,-0.997974,0.031799,-0.002035,0.044726,26.165997,24.749249,-45.187527,,,,,,,
1508184031.248054,-0.036939,0.050455,-3.100539,-0.065342,-0.005384,0.030127,-0.036884,-0.050434,-0.998046,0.018390,-0.001828,0.037368,26.194607,24.793274,-45.146793,,,,,,,
1508184031.268060,-0.036900,0.048991,-3.100024,-0.079230,-0.014962,0.028144,-0.036847,-0.048972,-0.998120,0.014829,-0.000467,0.035245,26.197025,24.815340,-45.133266,,,,,,,
1508184031.288066,-0.036802,0.047175,-3.099634,-0.095414,0.023402,0.022268,-0.036753,-0.047157,-0.998211,0.015559,0.014549,0.032940,26.222713,24.904978,-45.068928,,,,,,,
1508184031.308072,-0.036069,0.045327,-3.099153,-0.085807,0.038301,0.028442,-0.036024,-0.045311,-0.998323,0.019972,0.019035,0.033449,26.253267,24.959543,-45.020927,,,,,,,
1508184031.328080,-0.034295,0.043621,-3.098508,-0.073847,-0.005408,0.047194,-0.034256,-0.043607,-0.998461,0.024597,-0.004534,0.046008,26.289001,25.006075,-44.974232,,,,,,,
1508184031.348087,-0.034515,0.042844,-3.097675,-0.088678,-0.066100,0.037422,-0.034477,-0.042831,-0.998487,0.012275,-0.010910,0.056577,26.399649,25.040421,-44.890232,,,,,,,
1508184031.368094,-0.035011,0.041721,-3.097341,-0.145722,0.026628,0.017993,-0.034973,-0.041709,-0.998518,0.000824,-0.012719,0.062192,26.371849,25.088385,-44.879787,,,,,,,
1508184031.388102,-0.033921,0.038380,-3.096874,-0.170373,0.059621,0.035660,-0.033890,-0.038371,-0.998689,-0.000259,-0.016058,0.062364,26.371849,25.088385,-44.879787,,,,,,,
1508184031.408107,-0.031332,0.035747,-3.096165,-0.150866,-0.005377,0.050435,-0.031306,-0.035739,-0.998871,0.042598,-0.007413,0.050796,26.520098,25.311613,-44.666584,,,,,,,
1508184031.428101,-0.030191,0.032751,-3.094879,-0.176412,-0.010764,0.086786,-0.030170,-0.032745,-0.999008,0.050937,-0.013306,0.045258,26.587389,25.383764,-44.585556,,,,,,,
1508184031.448122,-0.029037,0.029195,-3.093336,-0.154048,0.008440,0.071562,-0.029020,-0.029191,-0.999152,0.041288,0.003663,0.028388,26.740746,25.485888,-44.435333,,,,,,,
1508184031.468128,-0.028452,0.026118,-3.092356,-0.160645,0.050019,0.054969,-0.028439,-0.026116,-0.999254,0.040020,-0.004173,0.013170,26.798794,25.613928,-44.326607,,,,,,,
1508184031.488129,-0.027541,0.022537,-3.091082,-0.184061,0.024428,0.070286,-0.027531,-0.022535,-0.999367,0.050785,-0.000979,0.009483,26.860510,25.700315,-44.239166,,,,,,,
1508184031.508141,-0.026066,0.018187,-3.090037,-0.246095,0.002102,0.058927,-0.026059,-0.018186,-0.999495,0.047726,-0.002092,0.012145,26.975294,25.834032,-44.091194,,,,,,,
1508184031.528121,-0.024943,0.012163,-3.088595,-0.320112,0.103246,0.094836,-0.024939,-0.012163,-0.999615,0.009695,-0.007231,-0.007450,27.046663,26.083836,-43.899982,,,,,,,
1508184031.548127,-0.021922,0.006867,-3.086512,-0.204633,0.155373,0.115320,-0.021920,-0.006867,-0.999736,-0.014030,0.017304,-0.026448,27.172419,26.243143,-43.727043,,,,,,,
1508184031.568144,-0.020660,0.003700,-3.084376,-0.113335,0.025415,0.103274,-0.020659,-0.003700,-0.999780,0.001829,0.007545,-0.032248,27.315639,26.330847,-43.584850,,,,,,,
1508184031.588169,-0.020464,0.000990,-3.082675,-0.149786,0.013770,0.071481,-0.020463,-0.000990,-0.999790,-0.024703,0.000089,-0.010738,27.428717,26.431833,-43.452511,,,,,,,
1508184031.608155,-0.020448,-0.002564,-3.081951,-0.198284,0.082042,0.026809,-0.020447,0.002564,-0.999788,-0.035492,-0.003693,0.003633,27.471596,26.513287,-43.375732,,,,,,,
1508184031.628183,-0.019290,-0.006736,-3.081623,-0.212070,0.028803,0.016929,-0.019288,0.006736,-0.999791,-0.027007,-0.005744,0.000844,27.483891,26.627541,-43.297886,,,,,,,
1508184031.648189,-0.020503,-0.011309,-3.081278,-0.267556,-0.010625,0.029272,-0.020500,0.011309,-0.999726,-0.032356,-0.010272,-0.011795,27.527357,26.898924,-43.102081,,,,,,,
1508184031.668183,-0.020748,-0.016810,-3.080954,-0.261232,-0.009504,0.000460,-0.020744,0.016809,-0.999644,-0.039498,0.005728,-0.037741,27.487450,27.051449,-43.032036,,,,,,,
1508184031.688203,-0.020247,-0.020963,-3.081895,-0.175927,0.036381,-0.050385,-0.020241,0.020962,-0.999575,-0.032021,0.026661,-0.057828,27.482054,27.273085,-42.895363,,,,,,,
1508184031.708176,-0.020513,-0.024056,-3.082284,-0.133837,-0.022333,0.006949,-0.020506,0.024054,-0.999500,0.005094,-0.003302,-0.054027,27.788975,23.757898,-24.482605,,,,,,,
1508184031.728192,-0.021295,-0.026405,-3.081831,-0.104827,-0.036235,0.030587,-0.021286,0.026402,-0.999425,-0.027710,0.007046,-0.052242,27.780367,23.808010,-24.443665,,,,,,,
1508184031.748223,-0.021747,-0.028331,-3.081382,-0.101732,-0.011709,0.017434,-0.021736,0.028328,-0.999362,-0.027260,0.005120,-0.052304,27.780367,23.808010,-24.443665,,,,,,,
1508184031.768229,-0.021801,-0.030795,-3.081140,-0.144632,0.026639,0.022241,-0.021789,0.030790,-0.999288,-0.006562,-0.006193,-0.045313,27.779598,23.886917,-24.367432,,,,,,,
1508184031.788208,-0.021247,-0.033010,-3.080290,-0.072795,0.015900,0.056465,-0.021234,0.033004,-0.999230,-0.009345,0.016175,-0.058952,27.811098,23.928898,-24.290194,,,,,,,
1508184031.808244,-0.021546,-0.033783,-3.079179,0.034259,-0.003298,0.054530,-0.021532,0.033777,-0.999197,-0.011640,0.023108,-0.058832,27.827452,23.927061,-24.273268,,,,,,,
1508184031.828250,-0.021676,-0.032768,-3.078059,0.050331,-0.012885,0.052525,-0.021663,0.032762,-0.999228,-0.014211,0.002928,-0.025323,27.856005,23.874378,-24.292379,,,,,,,
1508184031.848237,-0.022082,-0.031928,-3.077150,-0.002096,-0.027760,0.039984,-0.022069,0.031923,-0.999247,0.000982,-0.013490,-0.011358,27.869947,23.820564,-24.329193,,,,,,,
1508184031.868264,-0.022692,-0.031628,-3.076388,-0.019247,-0.020293,0.036690,-0.022679,0.031622,-0.999243,-0.005764,-0.018805,-0.002207,27.872971,23.811232,-24.334862,,,,,,,
1508184031.888267,-0.023221,-0.032014,-3.075911,-0.014998,-0.034098,0.014495,-0.023207,0.032008,-0.999218,-0.017626,-0.013423,0.004925,27.874596,23.782267,-24.361313,,,,,,,
1508184031.908265,-0.023996,-0.032403,-3.076002,-0.027917,-0.042553,-0.017362,-0.023981,0.032398,-0.999187,-0.017447,-0.009616,0.002941,27.872166,23.782072,-24.364283,,,,,,,
1508184031.928275,-0.024766,-0.032932,-3.076643,-0.050532,-0.010561,-0.032737,-0.024750,0.032926,-0.999151,-0.008377,-0.008878,-0.008326,27.837301,23.810917,-24.375967,,,,,,,
1508184031.948276,-0.025039,-0.033557,-3.077052,-0.012972,-0.022333,-0.010203,-0.025023,0.033551,-0.999124,0.000044,-0.006756,-0.015403,27.806425,23.848059,-24.374899,,,,,,,
1508184031.968290,-0.026042,-0.033157,-3.077244,0.028839,-0.055354,-0.016153,-0.026024,0.033151,-0.999111,0.003121,-0.006296,-0.012653,27.802485,23.851059,-24.376455,,,,,,,
1508184031.988305,-0.026654,-0.032400,-3.077646,-0.017326,-0.010589,-0.023165,-0.026637,0.032395,-0.999120,-0.002492,-0.016831,-0.004450,27.760109,23.847752,-24.427931,,,,,,,
1508184032.008311,-0.026201,-0.032706,-3.078284,-0.022803,0.021391,-0.033222,-0.026184,0.032700,-0.999122,0.014130,0.004104,-0.017846,27.746584,23.858471,-24.432831,,,,,,,
1508184032.028289,-0.024808,-0.032653,-3.078465,0.026697,-0.028762,0.006921,-0.024792,0.032647,-0.999159,0.021252,-0.001031,-0.038606,27.759487,23.878628,-24.398460,,,,,,,
1508184032.048307,-0.025748,-0.032380,-3.078010,0.004340,-0.044776,0.027430,-0.025731,0.032374,-0.999145,0.026204,-0.013117,-0.043885,27.771326,23.864674,-24.398638,,,,,,,
1508184032.068331,-0.026166,-0.032745,-3.077585,-0.041771,-0.024500,0.015441,-0.026149,0.032739,-0.999122,0.012645,-0.004434,-0.057641,27.763369,23.843990,-24.427900,,,,,,,
1508184032.088319,-0.025560,-0.032851,-3.077621,0.023216,0.049028,-0.005933,-0.025543,0.032845,-0.999134,0.002579,0.021782,-0.075771,29.239674,23.691069,-20.676575,,,,,,,
1508184032.108344,-0.025153,-0.031697,-3.077217,0.073784,-0.001129,0.033143,-0.025138,0.031692,-0.999182,0.028434,-0.018417,-0.102762,29.256716,23.678074,-20.667358,,,,,,,
1508184032.128351,-0.026029,-0.030863,-3.076204,0.006627,-0.067195,0.052278,-0.026014,0.030859,-0.999185,0.020460,-0.026556,-0.139731,29.270140,23.616833,-20.718357,,,,,,,
1508184032.148336,-0.026363,-0.031682,-3.075625,-0.055810,0.015988,0.012732,-0.026347,0.031677,-0.999151,-0.009511,-0.025787,-0.190318,29.270124,23.602419,-20.734797,,,,,,,
1508184032.168365,-0.025522,-0.033763,-3.076173,-0.142832,0.069388,-0.045557,-0.025504,0.033757,-0.999105,-0.001153,-0.042256,-0.303065,29.279394,23.627327,-20.693298,,,,,,,
1508184032.188371,-0.023199,-0.038362,-3.077958,-0.272748,0.154754,-0.103212,-0.023180,0.038352,-0.998995,0.004290,-0.059821,-0.452512,29.288122,23.766611,-20.520729,,,,,,,
1508184032.208375,-0.019602,-0.043052,-3.080183,-0.221412,0.156885,-0.109679,-0.019583,0.043038,-0.998881,-0.022073,-0.081231,-0.570958,29.313297,23.929766,-20.293915,,,,,,,
1508184032.228386,-0.016406,-0.047311,-3.083042,-0.181913,0.132476,-0.160537,-0.016387,0.047293,-0.998747,-0.008592,-0.125952,-0.595812,29.315928,24.012939,-20.191616,,,,,,,
1508184032.248391,-0.017408,-0.050629,-3.086808,-0.147974,-0.164664,-0.194640,-0.017385,0.050607,-0.998567,0.040517,-0.106851,-0.750319,29.301527,24.181225,-20.010874,,,,,,,
1508184032.268372,-0.024435,-0.054017,-3.090839,-0.171851,-0.397972,-0.180576,-0.024397,0.053990,-0.998243,0.017515,-0.192144,-0.741930,29.039093,24.453798,-20.062128,,,,,,,
1508184032.288404,-0.026387,-0.055243,-3.093304,0.023865,0.095009,-0.094038,-0.026343,0.055215,-0.998127,-0.079095,-0.156747,-0.675091,28.930775,24.533609,-20.121092,,,,,,,
1508184032.308409,-0.022527,-0.048708,-3.093650,0.567625,0.153250,0.011340,-0.022499,0.048689,-0.998561,-0.107216,-0.015607,-0.810201,28.929703,24.535469,-20.120367,,,,,,,
1508184032.328400,-0.021523,-0.028551,-3.092899,1.286036,0.031608,0.024294,-0.021513,0.028547,-0.999361,-0.081988,0.075197,-0.715147,28.946535,24.476633,-20.167765,,,,,,,
1508184032.348417,-0.022450,0.003614,-3.090151,1.746958,-0.091276,0.157952,-0.022448,-0.003614,-0.999741,-0.080183,0.133847,-0.595565,28.985352,23.723963,-20.994505,,,,,,,
1508184032.368432,-0.024575,0.040617,-3.085032,1.923718,-0.090381,0.220718,-0.024552,-0.040606,-0.998874,-0.022338,0.124926,-0.371488,29.040226,22.630413,-22.096964,,,,,,,
1508184032.388428,-0.026191,0.083036,-3.080222,2.283916,0.006553,0.180643,-0.026098,-0.082940,-0.996213,-0.046046,0.241189,-0.187564,29.055033,22.384609,-22.326675,,,,,,,
1508184032.408446,-0.024110,0.134401,-3.073504,2.747085,0.210693,0.314888,-0.023890,-0.133997,-0.990694,-0.056249,0.292841,0.008348,29.178530,20.658491,-23.782059,,,,,,,
1508184032.428452,-0.018786,0.195259,-3.065617,3.186547,0.326687,0.318208,-0.018428,-0.194020,-0.980824,-0.004720,0.386983,0.215337,29.501173,18.669102,-24.997831,,,,,,,
1508184032.448449,-0.016582,0.258744,-3.058764,3.102527,0.086086,0.257782,-0.016029,-0.255866,-0.966579,0.099678,0.348029,0.451412,29.688894,17.314127,-25.739788,,,,,,,
1508184032.468466,-0.019012,0.315034,-3.052580,2.609480,-0.035161,0.224722,-0.018075,-0.309849,-0.950614,0.129251,0.321125,0.665305,29.799818,15.561604,-26.712423,,,,,,,
1508184032.488473,-0.019728,0.360681,-3.049073,2.109993,0.080316,0.070941,-0.018458,-0.352911,-0.935475,0.072047,0.406042,0.798893,29.853527,13.743358,-27.633915,,,,,,,
1508184032.508463,-0.015792,0.397763,-3.046153,1.738265,0.292262,0.135323,-0.014559,-0.387357,-0.921815,0.093233,0.405621,0.911103,29.937817,12.875534,-27.958790,,,,,,,
1508184032.528471,-0.013951,0.430821,-3.042707,1.614777,0.049468,0.111213,-0.012676,-0.417617,-0.908535,0.115993,0.427001,0.965206,30.119232,11.825217,-28.226624,,,,,,,
1508184032.548493,-0.016697,0.459013,-3.041242,1.239431,-0.134539,0.019262,-0.014968,-0.443063,-0.896365,0.121139,0.362222,0.970569,30.126347,10.674874,-28.673969,,,,,,,
1508184032.568475,-0.018812,0.475914,-3.039341,0.587699,-0.015246,0.107591,-0.016720,-0.458151,-0.888717,-0.028507,0.212088,0.807693,30.082844,10.064531,-28.939142,,,,,,,
1508184032.588508,-0.017938,0.480124,-3.037382,0.020887,0.179940,0.054003,-0.015909,-0.461889,-0.886795,-0.029318,0.215826,0.805771,30.105444,9.832189,-28.995457,,,,,,,
1508184032.608513,-0.012528,0.476905,-3.036635,-0.225665,0.295108,0.023727,-0.011130,-0.459032,-0.888350,-0.040918,0.206193,0.554717,30.192358,9.794426,-28.917759,,,,,,,
1508184032.628520,-0.007424,0.472298,-3.037315,-0.220321,0.201540,-0.063423,-0.006612,-0.454934,-0.890500,-0.001918,0.166116,0.411024,30.433027,9.969398,-28.603987,,,,,,,
1508184032.648528,-0.002953,0.467536,-3.039658,-0.282441,0.167565,-0.111933,-0.002636,-0.450688,-0.892678,-0.000981,0.138036,0.368141,30.479515,10.054272,-28.524670,,,,,,,
1508184032.668533,0.000693,0.458893,-3.041539,-0.529381,0.132387,-0.068586,0.000621,-0.442956,-0.896543,0.020329,0.061944,0.280653,30.581942,10.420152,-28.282705,,,,,,,
1508184032.688540,0.004893,0.445331,-3.042782,-0.751034,0.208030,-0.046058,0.004416,-0.430756,-0.902457,0.038385,0.026429,0.229377,30.660828,10.809684,-28.050144,,,,,,,
1508184032.708524,0.008007,0.428727,-3.043214,-0.858672,0.090824,-0.017620,0.007283,-0.415714,-0.909466,0.029354,0.007144,0.186719,30.712826,11.037879,-27.904009,,,,,,,
1508184032.728554,0.008114,0.411769,-3.043528,-0.820816,-0.052979,-0.024093,0.007436,-0.400231,-0.916384,0.033809,0.055474,0.066775,30.766731,11.763836,-27.545717,,,,,,,
1508184032.748535,0.007664,0.397468,-3.043140,-0.635698,0.033104,0.053426,0.007066,-0.387085,-0.922017,-0.004686,0.093368,0.063878,30.744997,12.186507,-27.385771,,,,,,,
1508184032.768568,0.007921,0.387724,-3.041192,-0.411933,0.026593,0.085341,0.007333,-0.378082,-0.925743,-0.013726,0.113815,0.074654,30.765720,12.331614,-27.297401,,,,,,,
1508184032.788574,0.006227,0.380749,-3.039576,-0.341993,-0.118271,0.072462,0.005781,-0.371616,-0.928369,0.096148,0.132831,0.140863,30.801575,12.588161,-27.139404,,,,,,,
1508184032.808564,0.002116,0.372685,-3.036805,-0.436877,-0.123780,0.176044,0.001971,-0.364118,-0.931351,0.065320,0.092420,0.172958,30.744057,12.732039,-27.137505,,,,,,,
1508184032.828588,0.000307,0.363993,-3.031648,-0.412618,0.086964,0.259340,0.000287,-0.356009,-0.934483,0.029300,0.105673,0.202457,30.741644,12.792610,-27.111744,,,,,,,
1508184032.848575,0.002669,0.357768,-3.026692,-0.234660,0.263883,0.191596,0.002500,-0.350184,-0.936677,0.008440,0.231837,0.277101,30.923691,12.874992,-26.864586,,,,,,,
1508184032.868580,0.009131,0.355740,-3.024179,-0.029916,0.397180,0.094609,0.008559,-0.348284,-0.937350,0.011094,0.224261,0.337832,31.078850,12.875261,-26.684807,,,,,,,
1508184032.888608,0.012305,0.355612,-3.021496,-0.076880,0.057268,0.151822,0.011535,-0.348164,-0.937363,0.022218,0.152607,0.311539,31.250084,12.840990,-26.500706,,,,,,,
1508184032.908615,0.011105,0.348538,-3.017572,-0.511217,0.055184,0.183101,0.010437,-0.341524,-0.939815,0.048401,0.114565,0.251506,31.349316,12.782332,-26.411713,,,,,,,
1508184032.928620,0.014953,0.334896,-3.014681,-0.773564,0.360123,0.074378,0.014122,-0.328671,-0.944339,-0.066628,0.210904,0.125247,31.496002,13.047406,-26.105806,,,,,,,
1508184032.948629,0.027127,0.318860,-3.013686,-0.764220,0.778831,0.037376,0.025756,-0.313484,-0.949244,-0.029464,0.175590,0.120478,31.685200,13.339088,-25.726696,,,,,,,
1508184032.968635,0.040777,0.307044,-3.011562,-0.522488,0.529363,0.109056,0.038859,-0.302243,-0.952439,0.064687,0.158322,0.062119,31.984264,13.608915,-25.210125,,,,,,,
1508184032.988622,0.036947,0.295482,-3.008108,-0.654288,-0.447510,0.153178,0.035337,-0.291201,-0.956009,0.086565,-0.138914,-0.104660,32.272362,13.916780,-24.669090,,,,,,,
1508184033.008649,0.027868,0.280948,-3.003048,-0.762607,-0.260193,0.248642,0.026772,-0.277267,-0.960420,-0.064339,-0.119202,-0.053344,32.142879,14.090239,-24.739576,,,,,,,
1508184033.028656,0.027434,0.267478,-3.000603,-0.593844,0.258032,-0.034105,0.026455,-0.264300,-0.964078,-0.233776,0.012759,0.016324,32.093060,14.251607,-24.711809,,,,,,,
1508184033.048646,0.040099,0.259188,-3.004259,-0.313106,0.637578,-0.230688,0.038749,-0.256296,-0.965821,-0.129935,0.040995,0.063035,32.239792,14.630245,-24.296051,,,,,,,
1508184033.068670,0.045278,0.253750,-3.005678,-0.277924,-0.073545,0.071765,0.043813,-0.251036,-0.966986,0.045832,-0.188280,0.020529,32.444496,14.905770,-23.852020,,,,,,,
1508184033.088675,0.032416,0.245100,-2.998574,-0.592343,-0.838999,0.420053,0.031442,-0.242653,-0.969604,-0.009652,-0.096642,0.057647,16.303083,14.069633,-47.201782,,,,,,,
1508184033.108674,0.012894,0.225641,-2.990605,-1.221123,-0.736362,0.311340,0.012566,-0.223731,-0.974570,-0.092690,-0.088601,0.050726,15.737559,14.497621,-47.264172,,,,,,,
1508184033.128690,0.002212,0.196383,-2.986706,-1.587845,-0.364053,0.085491,0.002169,-0.195123,-0.980776,-0.209353,-0.066092,-0.114606,15.170570,15.601814,-47.097668,,,,,,,
1508184033.148694,-0.003717,0.162013,-2.987238,-1.775719,-0.324287,-0.067426,-0.003668,-0.161305,-0.986898,-0.043604,-0.037440,-0.439234,14.790662,17.504671,-46.546497,,,,,,,
1508184033.168702,-0.010907,0.127429,-2.989796,-1.629199,-0.387010,-0.148731,-0.010818,-0.127085,-0.991833,-0.019807,0.068476,-0.548237,14.523429,18.762850,-46.138691,,,,,,,
1508184033.188688,-0.017402,0.100247,-2.993144,-1.181979,-0.325411,-0.112640,-0.017314,-0.100080,-0.994829,0.017359,0.021909,-0.562102,14.121157,20.252844,-45.630787,,,,,,,
1508184033.208716,-0.025536,0.081430,-2.993823,-0.822607,-0.468537,0.035250,-0.025449,-0.081340,-0.996361,0.068051,-0.021382,-0.603278,13.669689,21.509665,-45.191010,,,,,,,
1508184033.228699,-0.034015,0.069127,-2.992861,-0.493185,-0.373889,0.073083,-0.033927,-0.069072,-0.997035,0.009147,-0.005010,-0.535741,13.376726,21.998924,-45.042912,,,,,,,
1508184033.248730,-0.039059,0.061207,-2.992062,-0.377313,-0.148029,0.043063,-0.038976,-0.061169,-0.997366,0.008748,-0.033741,-0.470148,13.148477,22.320784,-44.951683,,,,,,,
1508184033.268736,-0.038440,0.053419,-2.992336,-0.377270,0.118427,-0.031177,-0.038376,-0.053394,-0.997836,0.035888,-0.035138,-0.365552,13.022810,22.830280,-44.731846,,,,,,,
1508184033.288727,-0.035988,0.048322,-2.993138,-0.155591,0.079984,-0.011592,-0.035938,-0.048303,-0.998186,0.037754,-0.062812,-0.289702,13.100077,23.065008,-44.588642,,,,,,,
1508184033.308750,-0.036246,0.048352,-2.992335,0.081534,-0.050192,0.067958,-0.036195,-0.048333,-0.998175,0.025590,-0.074256,-0.247278,13.149322,23.171263,-44.519001,,,,,,,
1508184033.328733,-0.037225,0.050967,-2.991114,0.140156,-0.020292,0.023762,-0.037168,-0.050945,-0.998010,-0.045077,-0.079442,-0.098838,13.134766,23.039669,-44.591534,,,,,,,
1508184033.348756,-0.034942,0.052945,-2.992136,0.070662,0.191943,-0.094425,-0.034885,-0.052920,-0.997989,-0.040585,-0.071332,-0.042691,13.151307,22.958496,-44.628513,,,,,,,
1508184033.368770,-0.030085,0.054171,-2.994563,0.058678,0.225039,-0.130084,-0.030037,-0.054145,-0.998081,-0.021095,-0.062997,-0.030453,13.245829,22.927929,-44.616268,,,,,,,
1508184033.388777,-0.026765,0.055950,-2.997011,0.100777,0.126990,-0.107376,-0.026720,-0.055920,-0.998078,0.001985,-0.028583,0.014054,13.430685,22.888731,-44.581120,,,,,,,
1508184033.408774,-0.024245,0.061262,-2.998364,0.119210,0.097070,-0.062172,-0.024197,-0.061223,-0.997831,-0.022526,-0.009013,0.010984,13.478532,22.831230,-44.596161,,,,,,,
1508184033.428790,-0.021421,0.062827,-2.999590,0.049434,0.162085,-0.071593,-0.021377,-0.062786,-0.997798,-0.026535,0.000240,0.016368,13.539681,22.637959,-44.676098,,,,,,,
1508184033.448797,-0.017930,0.064061,-3.002200,0.064120,0.162263,-0.162242,-0.017893,-0.064017,-0.997788,-0.024862,0.039084,0.006959,13.687243,22.592783,-44.653992,,,,,,,
1508184033.468781,-0.017402,0.062605,-3.004885,0.055710,0.151527,-0.123692,-0.017367,-0.062564,-0.997890,-0.034238,0.025699,0.004375,13.641303,22.696953,-44.615208,,,,,,,
1508184033.488811,-0.015126,0.063483,-3.006857,0.035638,0.107778,-0.083589,-0.015095,-0.063440,-0.997871,-0.044978,0.036326,0.002541,13.687246,22.686895,-44.606251,,,,,,,
1508184033.508816,-0.021582,0.057506,-3.007480,0.097739,0.111955,-0.062367,-0.021545,-0.057475,-0.998114,-0.092850,0.073451,-0.018106,13.780123,22.658916,-44.591873,,,,,,,
1508184033.528823,-0.019227,0.060654,-3.008983,0.184375,0.110894,-0.075212,-0.019190,-0.060616,-0.997977,-0.125066,0.056039,-0.012552,13.442397,22.906338,-44.568546,,,,,,,
1508184033.548822,-0.018216,0.064485,-3.009969,0.176219,0.012824,-0.039662,-0.018177,-0.064440,-0.997756,-0.139065,0.025972,-0.012300,13.488087,22.798794,-44.609863,,,,,,,
1508184033.568810,-0.018157,0.067427,-3.011139,0.126839,0.007616,-0.092864,-0.018115,-0.067376,-0.997563,-0.208783,0.040184,0.002034,13.474820,22.590481,-44.719715,,,,,,,
1508184033.588829,-0.018245,0.069288,-3.014816,0.069837,-0.054926,-0.239064,-0.018200,-0.069232,-0.997434,-0.218387,0.039585,-0.016863,13.436986,22.541927,-44.755585,,,,,,,
1508184033.608851,-0.018856,0.070372,-3.020624,0.047146,-0.049469,-0.302038,-0.018808,-0.070314,-0.997348,-0.245306,0.022478,-0.019605,13.324917,22.540939,-44.789577,,,,,,,
1508184033.628857,-0.020588,0.072328,-3.026816,0.124318,-0.133567,-0.339263,-0.020533,-0.072265,-0.997174,-0.282537,0.051483,-0.016910,13.021328,22.576006,-44.861145,,,,,,,
1508184033.648865,-0.022057,0.075867,-3.035189,0.178276,-0.056645,-0.458779,-0.021991,-0.075794,-0.996881,-0.301419,0.017277,0.002237,12.805540,22.549498,-44.936527,,,,,,,
1508184033.668852,-0.021544,0.079056,-3.044528,0.126760,-0.018259,-0.471026,-0.021475,-0.078974,-0.996645,-0.245966,0.001215,-0.008680,12.611965,22.518726,-45.006653,,,,,,,
1508184033.688878,-0.022468,0.080682,-3.055036,0.045455,-0.134150,-0.570583,-0.022393,-0.080595,-0.996495,-0.239402,0.022444,-0.013270,12.226912,22.552187,-45.096062,,,,,,,
1508184033.708861,-0.025851,0.082381,-3.068530,0.085924,-0.255257,-0.740532,-0.025760,-0.082288,-0.996276,-0.241573,0.057568,-0.000856,11.899975,22.626345,-45.146347,,,,,,,
1508184033.728893,-0.029907,0.084999,-3.085014,0.104873,-0.273146,-0.853314,-0.029795,-0.084897,-0.995944,-0.231481,0.038495,0.002185,11.476376,22.697296,-45.220337,,,,,,,
1508184033.748898,-0.033094,0.086943,-3.101739,0.053455,-0.213555,-0.815753,-0.032963,-0.086834,-0.995677,-0.198330,-0.001164,0.000560,10.554783,22.847855,-45.368774,,,,,,,
1508184033.768891,-0.035518,0.087965,-3.117183,0.021511,-0.193441,-0.748844,-0.035373,-0.087851,-0.995505,-0.125210,0.056281,-0.003900,10.143431,22.946129,-45.412987,,,,,,,
1508184033.788912,-0.040005,0.090301,-3.132489,0.124634,-0.346826,-0.765890,-0.039832,-0.090179,-0.995129,-0.087152,0.074905,0.003353,9.746871,23.039627,-45.452477,,,,,,,
1508184033.808919,-0.050150,0.094265,3.136408,0.180516,-0.734686,-0.715523,-0.049906,-0.094126,-0.994309,-0.036154,0.027109,0.005936,8.664430,23.065815,-45.657963,,,,,,,
1508184033.828919,-0.064451,0.098824,3.119446,0.127294,-0.734187,-0.958607,-0.064093,-0.098663,-0.993055,-0.038157,0.046997,0.065198,7.852952,23.025349,-45.824863,,,,,,,
1508184033.848933,-0.073118,0.100084,3.097088,-0.108608,-0.448205,-1.179036,-0.072687,-0.099917,-0.992337,0.028635,0.030871,0.061749,6.762895,23.079285,-45.971333,,,,,,,
1508184033.868940,-0.078383,0.096031,3.073469,-0.379254,-0.367376,-1.080839,-0.077942,-0.095883,-0.992336,0.270157,-0.044208,-0.045566,5.596752,23.474400,-45.928013,,,,,,,
1508184033.888935,-0.085802,0.090708,3.053972,-0.256182,-0.526505,-0.890955,-0.085344,-0.090584,-0.992225,0.400316,0.105110,-0.041939,4.739142,23.921577,-45.793583,,,,,,,
1508184033.908950,-0.097467,0.089931,3.035673,-0.072647,-0.729982,-0.905203,-0.096919,-0.089810,-0.991232,0.518642,0.093380,-0.019037,4.271187,24.065525,-45.764191,,,,,,,
1508184033.928950,-0.111727,0.087526,3.022196,-0.281755,-0.796897,-0.443433,-0.111068,-0.087414,-0.989961,0.630904,-0.141910,0.013475,2.677876,24.326859,-45.746983,,,,,,,
1508184033.948945,-0.128341,0.081165,3.018609,-0.341179,-0.865898,-0.022265,-0.127568,-0.081076,-0.988511,0.518986,0.052908,-0.041641,1.801002,24.632500,-45.626198,,,,,,,
1508184033.968974,-0.142233,0.074842,3.016601,-0.292071,-0.561078,-0.109894,-0.141357,-0.074772,-0.987131,0.485199,0.089100,-0.059866,1.410183,24.789146,-45.555054,,,,,,,
1508184033.988979,-0.148273,0.071453,3.011646,-0.157751,-0.196494,-0.264564,-0.147353,-0.071392,-0.986504,0.405379,0.067105,-0.094276,0.609981,25.160799,-45.368664,,,,,,,
1508184034.008973,-0.149512,0.070123,3.007660,-0.063625,-0.033808,-0.128375,-0.148590,-0.070065,-0.986414,0.362228,0.042722,-0.072348,0.392753,25.270729,-45.309929,,,,,,,
1508184034.028994,-0.148781,0.069656,3.005497,-0.034979,0.079045,-0.101243,-0.147873,-0.069600,-0.986554,0.332398,0.055943,-0.042956,0.351445,25.296850,-45.295685,,,,,,,
1508184034.048999,-0.144373,0.069944,3.003166,0.026348,0.302775,-0.124793,-0.143520,-0.069887,-0.987177,0.262203,0.068132,0.005457,0.423051,25.330692,-45.276157,,,,,,,
1508184034.069001,-0.136952,0.071909,3.001432,0.096942,0.378270,-0.065162,-0.136171,-0.071847,-0.988077,0.305300,0.000970,0.006051,0.605992,25.292675,-45.295330,,,,,,,
1508184034.089014,-0.130007,0.073569,3.002605,0.093416,0.318263,0.112717,-0.129290,-0.073503,-0.988879,0.295428,-0.008803,0.010440,0.838289,25.228590,-45.327354,,,,,,,
1508184034.109020,-0.124654,0.074743,3.006277,0.055297,0.286125,0.208112,-0.123985,-0.074674,-0.989470,0.262763,0.009153,0.050963,1.350146,25.102179,-45.385143,,,,,,,
1508184034.129020,-0.118096,0.073803,3.011376,-0.054949,0.372298,0.277321,-0.117501,-0.073736,-0.990332,0.248451,0.016989,0.048437,1.650203,25.079216,-45.387920,,,,,,,
1508184034.149034,-0.110423,0.071154,3.017029,-0.120318,0.445741,0.314692,-0.109920,-0.071094,-0.991395,0.259975,0.014438,0.045075,2.006007,25.108578,-45.357346,,,,,,,
1508184034.169041,-0.101719,0.068272,3.024671,-0.074981,0.448676,0.439373,-0.101307,-0.068219,-0.992513,0.259907,0.042981,0.016287,2.860209,25.232840,-45.242420,,,,,,,
1508184034.189027,-0.093397,0.066227,3.034231,-0.059824,0.458134,0.502136,-0.093057,-0.066179,-0.993459,0.260095,0.038347,0.028066,3.500163,25.256428,-45.184238,,,,,,,
1508184034.209054,-0.084097,0.063463,3.044168,-0.120993,0.530562,0.513927,-0.083829,-0.063421,-0.994460,0.257825,0.039052,0.028579,3.837447,25.267181,-45.150822,,,,,,,
1508184034.229061,-0.073499,0.059484,3.055604,-0.155985,0.549513,0.629905,-0.073303,-0.059449,-0.995536,0.244385,0.045685,0.010215,4.973257,25.368073,-44.983124,,,,,,,
1508184034.249055,-0.046872,0.052803,3.068239,-0.094626,0.533372,0.729256,-0.046790,-0.052779,-0.997509,0.149146,0.035170,0.002194,6.520072,25.577547,-44.665771,,,,,,,
1508184034.269074,-0.037233,0.052406,3.083551,0.055309,0.514117,0.750749,-0.037173,-0.052382,-0.997935,0.099795,0.052077,0.007533,6.949349,25.559532,-44.611324,,,,,,,
1508184034.289078,-0.026133,0.051474,3.097900,-0.097116,0.642044,0.720218,-0.026095,-0.051451,-0.998335,0.073504,-0.024690,0.034727,8.246288,25.368479,-44.499355,,,,,,,
1508184034.309083,-0.015331,0.047294,3.112802,-0.243207,0.510983,0.757416,-0.015313,-0.047276,-0.998764,0.066400,0.026982,0.028428,8.943801,25.366507,-44.365551,,,,,,,
1508184034.329087,-0.007267,0.040884,3.128394,-0.336962,0.421437,0.802503,-0.007261,-0.040873,-0.999138,0.037199,0.025171,0.026146,9.573893,25.423182,-44.201313,,,,,,,
1508184034.349074,0.000712,0.034823,-3.138268,-0.252333,0.424548,0.834384,0.000712,-0.034816,-0.999394,-0.099360,0.046580,0.002216,10.757289,25.599560,-43.825752,,,,,,,
1508184034.369080,0.008309,0.031172,-3.121790,-0.154869,0.375557,0.816894,0.008305,-0.031167,-0.999480,-0.111271,0.032769,0.022231,11.354660,25.608557,-43.669518,,,,,,,
1508184034.389115,0.014458,0.026774,-3.106230,-0.301485,0.306500,0.747623,0.014453,-0.026770,-0.999537,-0.114367,0.017661,0.018214,11.914190,25.574049,-43.540482,,,,,,,
1508184034.409121,0.019469,0.018645,-3.091635,-0.469408,0.248014,0.717674,0.019464,-0.018644,-0.999637,-0.171091,0.018354,-0.021100,12.873845,25.720854,-43.179340,,,,,,,
1508184034.429108,0.021963,0.009900,-3.076526,-0.414087,0.030627,0.750642,0.021960,-0.009900,-0.999710,-0.224917,0.035077,-0.063324,13.297009,25.883152,-42.953526,,,,,,,
1508184034.449136,0.020168,0.004396,-3.061857,-0.222368,-0.073733,0.710425,0.020166,-0.004396,-0.999787,-0.246286,0.038163,-0.037902,13.607311,25.994934,-42.788528,,,,,,,
1508184034.469120,0.019676,0.001602,-3.048267,-0.154291,-0.009702,0.643335,0.019675,-0.001602,-0.999805,-0.306784,-0.028641,-0.036801,14.079139,25.970215,-42.650665,,,,,,,
1508184034.489136,0.020003,-0.003358,-3.036757,-0.330362,0.044928,0.513652,0.020001,0.003358,-0.999794,-0.254666,-0.018296,-0.066368,14.316007,25.960760,-42.577511,,,,,,,
1508184034.509155,0.021216,-0.010139,-3.028470,-0.329900,0.064441,0.343827,0.021214,0.010138,-0.999724,-0.280338,0.003656,-0.084444,14.543044,26.056187,-42.442062,,,,,,,
1508184034.529162,0.022965,-0.015045,-3.023558,-0.194564,0.078575,0.183575,0.022961,0.015045,-0.999623,-0.235744,0.047318,-0.081798,14.888873,26.303953,-42.168434,,,,,,,
1508184034.549159,0.023031,-0.017162,-3.021676,-0.078096,-0.013857,0.047276,0.023025,0.017162,-0.999588,-0.210876,-0.008708,-0.058777,14.971133,26.368683,-42.098827,,,,,,,
1508184034.569176,0.023622,-0.019221,-3.020170,-0.118811,0.053173,0.092185,0.023616,0.019220,-0.999536,-0.217753,-0.041742,-0.062399,14.986355,26.409389,-42.067886,,,,,,,
1508184034.589182,0.025401,-0.021290,-3.019160,-0.083906,0.099137,0.008321,0.025392,0.021289,-0.999451,-0.161974,0.013547,-0.056488,15.067778,26.479830,-41.994453,,,,,,,
1508184034.609162,0.026222,-0.022119,-3.019997,-0.023917,0.002321,-0.059630,0.026213,0.022117,-0.999412,-0.101728,-0.013542,-0.044335,15.160681,26.571640,-41.902924,,,,,,,
1508184034.629196,0.025392,-0.022885,-3.020517,-0.045994,-0.065967,0.000024,0.025383,0.022883,-0.999416,-0.082115,-0.028666,-0.047734,15.160681,26.571640,-41.902924,,,,,,,
1508184034.649202,0.023635,-0.023482,-3.020299,-0.008476,-0.081966,0.005559,0.023626,0.023480,-0.999445,-0.077413,0.000186,-0.034719,15.088520,26.629744,-41.892086,,,,,,,
1508184034.669202,0.022158,-0.023034,-3.020403,0.027856,-0.085134,-0.012549,0.022150,0.023032,-0.999489,-0.049525,-0.019492,-0.020591,14.991399,26.630480,-41.926472,,,,,,,
1508184034.689216,0.020826,-0.022956,-3.020704,0.005303,-0.053179,-0.008731,0.020819,0.022954,-0.999520,-0.031973,-0.022923,-0.010719,14.951633,26.623993,-41.944786,,,,,,,
1508184034.709219,0.018669,-0.022397,-3.020986,0.032252,-0.134118,-0.021439,0.018663,0.022395,-0.999575,-0.017626,-0.019832,-0.043882,14.841847,26.612015,-41.991356,,,,,,,
1508184034.729218,0.016454,-0.022009,-3.021765,0.012759,-0.092502,-0.055083,0.016449,0.022007,-0.999622,-0.016373,-0.016239,-0.045605,14.751416,26.600515,-42.030483,,,,,,,
1508184034.749235,0.014660,-0.022304,-3.023339,-0.036586,-0.082845,-0.083976,0.014656,0.022302,-0.999644,-0.000053,-0.017801,-0.058172,14.669878,26.605207,-42.056046,,,,,,,
1508184034.769243,0.012851,-0.023854,-3.024559,-0.098478,-0.106327,-0.052667,0.012847,0.023852,-0.999633,0.035996,-0.017138,-0.158250,14.503353,26.693792,-42.057671,,,,,,,
1508184034.789246,0.010871,-0.025044,-3.026210,-0.004654,-0.058292,-0.114213,0.010867,0.025041,-0.999627,-0.002597,0.044493,-0.234305,14.375378,26.782314,-42.045330,,,,,,,
1508184034.809257,0.010935,-0.023307,-3.029581,0.117855,0.036648,-0.196721,0.010932,0.023305,-0.999669,-0.007132,0.034129,-0.272106,14.323987,26.792070,-42.056652,,,,,,,
1508184034.829263,0.011268,-0.021842,-3.034197,0.016175,-0.005844,-0.242945,0.011265,0.021840,-0.999698,0.078563,-0.063863,-0.319379,14.193333,26.752510,-42.126072,,,,,,,
1508184034.849244,0.008585,-0.023481,-3.039369,-0.131051,-0.200663,-0.283728,0.008583,0.023479,-0.999687,0.061531,-0.070797,-0.343544,13.992738,26.858606,-42.125668,,,,,,,
1508184034.869277,0.008777,-0.026493,-3.045444,-0.082901,0.160443,-0.285802,0.008774,0.026490,-0.999611,-0.004547,-0.052842,-0.356392,13.841637,26.965057,-42.107582,,,,,,,
1508184034.889283,0.013417,-0.025903,-3.050551,0.093459,0.262598,-0.254360,0.013412,0.025900,-0.999575,0.042649,-0.022925,-0.400496,13.803610,27.160149,-41.994526,,,,,,,
1508184034.909266,0.015237,-0.022610,-3.055885,0.184289,-0.071881,-0.267705,0.015233,0.022608,-0.999628,0.104946,-0.072825,-0.416525,13.836381,27.131271,-42.002407,,,,,,,
1508184034.929298,0.008197,-0.020034,-3.060998,0.062433,-0.435174,-0.228223,0.008195,0.020033,-0.999766,0.109282,-0.108823,-0.392522,13.681540,27.071779,-42.091423,,,,,,,
1508184034.949304,0.001948,-0.023207,-3.064723,-0.291217,-0.200834,-0.178041,0.001947,0.023205,-0.999729,-0.072000,-0.127438,-0.316723,13.037905,27.156452,-42.240898,,,,,,,
1508184034.969300,0.005955,-0.030360,-3.068456,-0.342215,0.367009,-0.208631,0.005952,0.030356,-0.999521,-0.093492,0.032709,-0.404058,12.955455,27.405325,-42.105320,,,,,,,
1508184034.989318,0.011846,-0.033817,-3.073810,-0.049862,0.195606,-0.294867,0.011839,0.033810,-0.999358,-0.017515,0.047900,-0.449998,13.128931,27.716293,-41.847244,,,,,,,
1508184035.009324,0.012445,-0.029813,-3.078237,0.384709,-0.027468,-0.128814,0.012439,0.029808,-0.999478,0.049084,0.017845,-0.357776,13.130405,27.803404,-41.788952,,,,,,,
1508184035.029328,0.007956,-0.017989,-3.077343,0.672112,-0.314611,0.133179,0.007955,0.017988,-0.999807,0.049067,-0.010435,-0.316096,12.989828,27.457169,-42.060928,,,,,,,
1508184035.049339,0.003280,-0.004111,-3.072967,0.659312,-0.165771,0.281379,0.003279,0.004111,-0.999986,-0.024413,-0.022940,-0.240279,12.810316,26.682108,-42.611202,,,,,,,
1508184035.069345,0.003383,0.010148,-3.066926,0.784670,0.147366,0.286341,0.003382,-0.010148,-0.999943,-0.108775,0.066346,-0.202084,12.908128,26.021517,-42.988537,,,,,,,
1508184035.089351,0.009758,0.029522,-3.061502,1.087853,0.393351,0.290010,0.009754,-0.029518,-0.999517,-0.032260,0.075752,-0.145243,13.163778,25.415499,-43.272636,,,,,,,
1508184035.109358,0.015743,0.056453,-3.054461,1.530895,0.172457,0.430434,0.015718,-0.056423,-0.998283,0.018325,0.075694,-0.121193,13.649915,24.347120,-43.733864,,,,,,,
1508184035.129361,0.010376,0.092267,-3.044930,1.874271,-0.400930,0.533392,0.010331,-0.092136,-0.995693,0.062361,0.126682,0.017101,13.903585,22.379513,-44.694534,,,,,,,
1508184035.149371,0.001507,0.131353,-3.033742,1.950138,-0.327516,0.567459,0.001494,-0.130976,-0.991384,-0.058150,0.212244,0.129599,13.782328,20.479378,-45.633278,,,,,,,
1508184035.169377,-0.004308,0.171368,-3.023685,2.052086,-0.198404,0.445018,-0.004244,-0.170530,-0.985343,-0.056623,0.231016,0.180473,13.756567,19.505302,-46.065754,,,,,,,
1508184035.189358,-0.011800,0.213039,-3.015880,2.062899,-0.370730,0.322751,-0.011533,-0.211431,-0.977325,0.080960,0.172354,0.356399,13.657498,16.451946,-47.271130,,,,,,,
1508184035.209371,-0.020920,0.252250,-3.008386,1.878824,-0.319630,0.361602,-0.020257,-0.249583,-0.968141,0.050179,0.163447,0.479296,13.393002,14.447303,-47.996418,,,,,,,
1508184035.229399,-0.028310,0.285081,-2.999932,1.499643,-0.207655,0.346400,-0.027164,-0.281235,-0.959254,0.010089,0.197922,0.510692,13.296767,13.512431,-48.294552,,,,,,,
1508184035.249405,-0.032498,0.312217,-2.993652,1.314734,-0.055030,0.220635,-0.030922,-0.307169,-0.951152,0.053581,0.229273,0.599453,13.136072,11.210512,-48.923630,,,,,,,
1508184035.269412,-0.035994,0.337692,-2.986738,1.288510,-0.132968,0.312420,-0.033954,-0.331311,-0.942911,0.086826,0.198285,0.624078,13.146986,9.875194,-49.207630,,,,,,,
1508184035.289419,-0.042636,0.360687,-2.980457,1.036980,-0.246638,0.188434,-0.039881,-0.352917,-0.934804,0.078089,0.193631,0.662313,13.095980,9.204973,-49.350960,,,,,,,
1508184035.309425,-0.048754,0.376406,-2.977088,0.622579,-0.236787,0.108629,-0.045323,-0.367581,-0.928887,0.014378,0.139523,0.688057,12.782482,7.669338,-49.694496,,,,,,,
1508184035.329407,-0.052555,0.383289,-2.973914,0.209079,-0.047136,0.140311,-0.048719,-0.373973,-0.926159,-0.007128,0.093928,0.634655,12.643698,7.268680,-49.790123,,,,,,,
1508184035.349439,-0.052412,0.383829,-2.971232,-0.044049,0.113850,0.104044,-0.048576,-0.374474,-0.925964,-0.037407,0.093712,0.590820,12.620604,7.084230,-49.822563,,,,,,,
1508184035.369447,-0.049993,0.381683,-2.970490,-0.153525,0.106638,-0.004532,-0.046377,-0.372483,-0.926879,-0.021128,0.128968,0.484802,12.804122,7.116942,-49.771049,,,,,,,
1508184035.389452,-0.047710,0.376950,-2.971911,-0.270369,0.111058,-0.065292,-0.044343,-0.368086,-0.928734,0.012758,0.125716,0.446937,12.865146,7.268012,-49.733467,,,,,,,
1508184035.409460,-0.044301,0.371118,-2.973076,-0.312119,0.151485,-0.033857,-0.041271,-0.362658,-0.931008,-0.016453,0.115008,0.430611,12.942169,7.480639,-49.681923,,,,,,,
1508184035.429466,-0.040326,0.363745,-2.975004,-0.418332,0.164441,-0.107541,-0.037677,-0.355777,-0.933811,-0.013165,0.107333,0.399067,13.088469,7.795390,-49.595131,,,,,,,
1508184035.449464,-0.037198,0.353307,-2.978043,-0.591447,0.076087,-0.115726,-0.034892,-0.346003,-0.937585,0.039378,0.095667,0.384667,13.254110,8.354109,-49.459995,,,,,,,
1508184035.469480,-0.034841,0.339593,-2.980576,-0.740033,0.074967,-0.069747,-0.032845,-0.333103,-0.942318,0.047737,0.137898,0.375988,13.312027,8.989203,-49.332924,,,,,,,
1508184035.489486,-0.033442,0.324373,-2.981133,-0.760951,0.016193,0.026022,-0.031692,-0.318714,-0.947321,0.018097,0.155125,0.338571,13.395818,9.921380,-49.131168,,,,,,,
1508184035.509492,-0.034281,0.309249,-2.982174,-0.755710,-0.048602,-0.066877,-0.032649,-0.304343,-0.952003,-0.026830,0.159171,0.330177,13.354585,10.665987,-48.986172,,,,,,,
1508184035.529500,-0.032542,0.294381,-2.985236,-0.734003,0.134750,-0.135663,-0.031136,-0.290148,-0.956475,-0.049110,0.138597,0.321267,13.327475,11.046877,-48.909084,,,,,,,
1508184035.549481,-0.024107,0.281181,-2.987716,-0.606553,0.517031,-0.082656,-0.023158,-0.277491,-0.960449,-0.025426,0.132807,0.305008,13.583897,12.137964,-48.578812,,,,,,,
1508184035.569489,-0.014151,0.270262,-2.990694,-0.558120,0.323326,-0.172652,-0.013637,-0.266984,-0.963604,0.053325,0.169236,0.208340,14.046383,12.711663,-48.299751,,,,,,,
1508184035.589492,-0.008995,0.257555,-2.994680,-0.680872,0.214713,-0.177382,-0.008698,-0.254717,-0.966976,0.081727,0.148837,0.208096,14.158527,13.013528,-48.186489,,,,,,,
1508184035.609523,-0.000276,0.245556,-2.997258,-0.500683,0.545754,-0.076754,-0.000267,-0.243095,-0.970002,-0.026588,0.145058,0.161622,14.490626,14.009805,-47.806908,,,,,,,
1508184035.629517,0.010652,0.238887,-2.998123,-0.272136,0.370932,-0.043468,0.010349,-0.236621,-0.971547,0.029629,0.043155,0.028828,10.658263,12.107126,-54.550686,,,,,,,
1508184035.649541,0.020271,0.236178,-3.001205,-0.507612,-0.289491,-0.008125,0.019707,-0.233988,-0.972040,0.077827,-0.043310,-0.006232,10.798597,12.263908,-54.488029,,,,,,,
1508184035.669547,0.015238,0.221325,-3.001659,-0.856080,-0.122036,-0.071071,0.014866,-0.219523,-0.975494,-0.068424,0.041483,-0.013779,10.953595,12.939726,-54.300468,,,,,,,
1508184035.689545,0.022657,0.203879,-3.003516,-0.818801,0.613052,-0.114815,0.022186,-0.202470,-0.979037,-0.049041,0.115464,-0.046781,10.992318,13.671983,-54.112885,,,,,,,
1508184035.709562,0.034377,0.191867,-3.004947,-0.439195,0.414689,-0.047178,0.033739,-0.190692,-0.981070,0.030195,0.069583,-0.151331,11.444386,14.348093,-53.843449,,,,,,,
1508184035.729568,0.031263,0.188032,-3.001997,-0.105785,-0.533022,0.271278,0.030707,-0.186926,-0.981894,0.106454,-0.159311,-0.184854,11.883308,14.970950,-53.578133,,,,,,,
1508184035.749573,0.012136,0.185502,-2.992234,-0.255783,-0.879756,0.556856,0.011928,-0.184440,-0.982771,-0.032344,-0.135140,-0.077516,11.381585,14.990540,-53.681488,,,,,,,
1508184035.769581,-0.001309,0.172122,-2.984681,-0.983982,-0.362215,0.195885,-0.001290,-0.171274,-0.985223,-0.097129,-0.098242,-0.110557,10.796836,15.097219,-53.772305,,,,,,,
1508184035.789588,-0.000931,0.143488,-2.984069,-1.606894,0.165674,-0.025630,-0.000922,-0.142996,-0.989723,-0.074548,-0.127359,-0.434334,10.431016,16.758066,-53.350914,,,,,,,
1508184035.809571,0.003283,0.111841,-2.985138,-1.457084,0.144369,-0.044627,0.003262,-0.111608,-0.993747,0.006549,0.011891,-0.525433,10.581906,18.066517,-52.892181,,,,,,,
1508184035.829603,-0.000421,0.091251,-2.985306,-0.793007,-0.366168,0.017726,-0.000419,-0.091124,-0.995839,0.032996,0.052153,-0.538462,10.633588,19.504269,-52.368591,,,,,,,
1508184035.849609,-0.010814,0.078729,-2.981760,-0.572212,-0.546802,0.295286,-0.010780,-0.078648,-0.996844,-0.032235,-0.144680,-0.442136,10.359910,20.133688,-52.184917,,,,,,,
1508184035.869599,-0.022301,0.066120,-2.975159,-0.684650,-0.527584,0.287628,-0.022250,-0.066071,-0.997567,-0.082563,-0.076308,-0.395927,9.801913,20.840025,-52.015137,,,,,,,
1508184035.889622,-0.027301,0.051434,-2.974939,-0.736718,-0.027134,-0.134382,-0.027262,-0.051411,-0.998305,-0.158224,0.051808,-0.409348,9.412709,21.517319,-51.810856,,,,,,,
1508184035.909611,-0.021201,0.038971,-2.980906,-0.534216,0.420556,-0.306303,-0.021183,-0.038961,-0.999016,-0.089748,0.063726,-0.428871,9.340137,21.907938,-51.660069,,,,,,,
1508184035.929627,-0.013987,0.032672,-2.985309,-0.189678,0.243317,-0.144046,-0.013979,-0.032666,-0.999369,0.084093,0.033399,-0.404776,9.732387,22.922634,-51.144814,,,,,,,
1508184035.949630,-0.013430,0.032639,-2.985636,0.111591,-0.099093,0.053694,-0.013423,-0.032633,-0.999377,0.079478,0.004190,-0.305341,9.822337,23.024837,-51.081669,,,,,,,
1508184035.969625,-0.016941,0.037073,-2.983449,0.262846,-0.157843,0.116278,-0.016928,-0.037064,-0.999169,-0.034982,-0.018264,-0.167930,9.698362,22.807085,-51.202904,,,,,,,
1508184035.989642,-0.018054,0.042158,-2.982000,0.222476,-0.001050,0.019133,-0.018037,-0.042146,-0.998949,-0.057601,-0.045546,-0.091444,9.645803,22.516876,-51.341091,,,,,,,
1508184036.009663,-0.015540,0.044660,-2.982868,0.078231,0.198350,-0.063623,-0.015524,-0.044645,-0.998882,-0.048288,-0.061114,-0.058308,9.657335,22.413504,-51.384136,,,,,,,
1508184036.029670,-0.010836,0.046374,-2.984168,0.111309,0.228171,-0.065146,-0.010824,-0.046357,-0.998866,-0.036737,-0.013625,-0.039235,9.912438,22.291067,-51.388817,,,,,,,
1508184036.049670,-0.012764,0.048229,-2.984534,0.244308,0.176887,-0.014385,-0.012749,-0.048210,-0.998756,-0.039269,0.013496,-0.010537,9.811289,22.236525,-51.431839,,,,,,,
1508184036.069684,-0.010783,0.054861,-2.984404,0.366751,0.047917,0.008720,-0.010767,-0.054834,-0.998437,-0.057898,0.031076,-0.000876,9.894203,22.101486,-51.474148,,,,,,,
1508184036.089675,-0.010421,0.061424,-2.984300,0.285518,-0.001030,-0.007570,-0.010401,-0.061385,-0.998060,-0.103170,-0.019700,0.050932,9.968208,21.737869,-51.614521,,,,,,,
1508184036.109611,-0.027548,0.067324,-2.984165,0.119335,0.031065,-0.081481,-0.027482,-0.067273,-0.997356,-0.144057,0.008191,0.072155,9.097395,21.253439,-51.975834,,,,,,,
1508184036.129634,-0.025420,0.068206,-2.986329,0.012925,0.145156,-0.123575,-0.025358,-0.068153,-0.997353,-0.158831,0.020561,0.064659,9.095726,21.170092,-52.010128,,,,,,,
1508184036.149639,-0.042476,0.061089,-2.988004,0.111316,0.107875,-0.167885,-0.042384,-0.061051,-0.997234,-0.154012,0.066010,0.023541,9.220228,21.150898,-51.996014,,,,,,,
1508184036.169639,-0.042778,0.065314,-2.992134,0.241139,-0.098650,-0.249225,-0.042674,-0.065268,-0.996955,-0.158635,0.059042,0.020728,8.195921,21.474304,-52.034988,,,,,,,
1508184036.189654,-0.044697,0.069868,-2.998012,0.171278,-0.084620,-0.331481,-0.044573,-0.069811,-0.996564,-0.168409,0.041308,0.036603,7.974877,21.271259,-52.152596,,,,,,,
1508184036.209661,-0.043986,0.071203,-3.005677,-0.019884,0.059398,-0.413399,-0.043860,-0.071143,-0.996501,-0.178049,0.029639,0.053279,7.727723,21.184587,-52.225033,,,,,,,
1508184036.229667,-0.041191,0.070558,-3.013762,-0.029573,0.115791,-0.380088,-0.041077,-0.070499,-0.996666,-0.170196,0.054539,0.026451,7.654922,21.296667,-52.190159,,,,,,,
1508184036.249674,-0.040327,0.071665,-3.020224,0.089006,-0.091055,-0.299337,-0.040213,-0.071604,-0.996622,-0.143183,0.055888,-0.003698,7.616783,21.339624,-52.178192,,,,,,,
1508184036.269680,-0.043924,0.075266,-3.028003,0.186173,-0.217483,-0.478848,-0.043786,-0.075195,-0.996207,-0.155403,0.090881,0.057883,7.527514,21.324076,-52.197502,,,,,,,
1508184036.289665,-0.058256,0.079265,-3.037255,0.093910,-0.156739,-0.497784,-0.058040,-0.079182,-0.995169,-0.158391,-0.004681,0.047919,6.928008,21.162634,-52.346004,,,,,,,
1508184036.309692,-0.059826,0.080219,-3.046538,-0.024851,-0.108870,-0.449340,-0.059598,-0.080133,-0.995001,-0.150485,-0.010397,0.032995,5.989902,21.091850,-52.490124,,,,,,,
1508184036.329676,-0.075985,0.080409,-3.053536,-0.134993,-0.038753,-0.363901,-0.075667,-0.080322,-0.993893,-0.131777,-0.011963,0.019253,5.624499,21.226927,-52.476105,,,,,,,
1508184036.349702,-0.078020,0.078806,-3.060315,-0.056349,-0.217733,-0.363497,-0.077699,-0.078725,-0.993864,-0.100265,0.059178,-0.019869,4.631172,21.294737,-52.545647,,,,,,,
1508184036.369715,-0.083784,0.080739,-3.071659,0.099287,-0.386471,-0.700251,-0.083414,-0.080651,-0.993246,-0.080801,0.085916,-0.028010,4.420533,21.331247,-52.548981,,,,,,,
1508184036.389721,-0.090124,0.082659,-3.088019,-0.065149,-0.327488,-0.868396,-0.089695,-0.082565,-0.992541,-0.084957,-0.024552,-0.021756,3.381766,21.319115,-52.630959,,,,,,,
1508184036.409721,-0.091807,0.080117,-3.105587,-0.261632,-0.066524,-0.834713,-0.091384,-0.080032,-0.992595,-0.069765,-0.016160,-0.055196,2.883105,21.457382,-52.604439,,,,,,,
1508184036.429707,-0.091152,0.077570,-3.121399,-0.130772,-0.077382,-0.748283,-0.090752,-0.077492,-0.992854,-0.048362,0.018944,-0.070333,2.559830,21.688923,-52.526154,,,,,,,
1508184036.449741,-0.096465,0.079727,-3.137770,0.122395,-0.464875,-0.905998,-0.096009,-0.079642,-0.992189,0.114930,0.101569,-0.069426,1.802111,21.883308,-52.476967,,,,,,,
1508184036.469749,-0.105621,0.084648,3.126481,0.132184,-0.550039,-0.934626,-0.105047,-0.084547,-0.990867,0.085958,-0.007433,-0.024178,1.094428,21.789604,-52.535458,,,,,,,
1508184036.489756,-0.115011,0.087691,3.110291,0.027736,-0.499232,-0.759345,-0.114317,-0.087579,-0.989576,0.062361,-0.040915,-0.014253,0.354710,21.698341,-52.583408,,,,,,,
1508184036.509762,-0.122336,0.089179,3.095342,-0.037886,-0.396925,-0.773575,-0.121546,-0.089061,-0.988582,0.120844,0.002162,0.015819,-0.914313,21.657480,-52.593498,,,,,,,
1508184036.529754,-0.127536,0.089884,3.079124,-0.075632,-0.328683,-0.802260,-0.126677,-0.089763,-0.987874,0.190840,0.004481,0.043874,-1.457405,21.683151,-52.570671,,,,,,,
1508184036.549776,-0.134852,0.089828,3.063971,-0.131498,-0.524837,-0.719401,-0.133901,-0.089707,-0.986926,0.227743,-0.020400,0.033709,-1.980466,21.723072,-52.537079,,,,,,,
1508184036.569783,-0.144967,0.087402,3.048410,-0.287903,-0.526816,-0.775769,-0.143908,-0.087290,-0.985734,0.385180,0.026652,0.005478,-2.815637,21.815844,-52.460457,,,,,,,
1508184036.589774,-0.152188,0.083565,3.032625,-0.315855,-0.410829,-0.710253,-0.151072,-0.083468,-0.984993,0.473109,0.063891,-0.051522,-3.917190,22.105579,-52.268131,,,,,,,
1508184036.609795,-0.158925,0.078622,3.019885,-0.336623,-0.384631,-0.490959,-0.157768,-0.078541,-0.984348,0.562202,0.049152,-0.081280,-4.643509,22.386784,-52.088661,,,,,,,
1508184036.629802,-0.167443,0.074414,3.012225,-0.235023,-0.493737,-0.277259,-0.166200,-0.074345,-0.983285,0.606340,0.075261,-0.084021,-4.960922,22.540390,-51.993065,,,,,,,
1508184036.649802,-0.176682,0.070769,3.007931,-0.228256,-0.424837,-0.107655,-0.175324,-0.070710,-0.981968,0.606874,0.055314,-0.074978,-5.901830,22.881504,-51.745186,,,,,,,
1508184036.669815,-0.182735,0.066495,3.008003,-0.162817,-0.232499,0.118761,-0.181319,-0.066446,-0.981177,0.567641,0.044260,-0.090173,-6.346972,23.108501,-51.591393,,,,,,,
1508184036.689796,-0.184586,0.064307,3.011330,-0.021879,-0.020747,0.215817,-0.183160,-0.064262,-0.980981,0.469888,0.065742,-0.055839,-6.476742,23.299042,-51.489464,,,,,,,
1508184036.709831,-0.184562,0.064544,3.016579,0.084017,0.055809,0.273274,-0.183134,-0.064499,-0.980970,0.423521,0.023758,0.008054,-6.365576,23.295742,-51.504818,,,,,,,
1508184036.729808,-0.182527,0.064281,3.022563,-0.002930,0.160201,0.284620,-0.181140,-0.064237,-0.981357,0.391452,-0.021090,0.018970,-6.263000,23.272175,-51.528046,,,,,,,
1508184036.749833,-0.175993,0.061080,3.026449,-0.179623,0.470405,0.196017,-0.174760,-0.061042,-0.982717,0.360078,-0.012826,0.015524,-5.749306,23.376936,-51.540501,,,,,,,
1508184036.769828,-0.163907,0.056863,3.030250,-0.143667,0.675875,0.251656,-0.162910,-0.056832,-0.985003,0.378670,0.052773,0.000506,-5.069899,23.589956,-51.514744,,,,,,,
1508184036.789857,-0.150244,0.054841,3.037133,-0.003971,0.675478,0.432829,-0.149454,-0.054814,-0.987248,0.399286,0.060215,-0.004558,-4.650313,23.665480,-51.519691,,,,,,,
1508184036.809863,-0.140144,0.054350,3.048946,0.095857,0.457690,0.660902,-0.139479,-0.054323,-0.988734,0.378798,0.025133,-0.019216,-3.337784,23.704977,-51.603218,,,,,,,
1508184036.829849,-0.131753,0.053589,3.062798,0.005980,0.491733,0.694597,-0.131183,-0.053563,-0.989910,0.269794,0.016103,0.038814,-2.753038,23.666553,-51.655338,,,,,,,
1508184036.849854,-0.120175,0.050303,3.075655,-0.138299,0.706040,0.614824,-0.119734,-0.050282,-0.991532,0.224760,0.052860,0.067277,-2.122422,23.686810,-51.675808,,,,,,,
1508184036.869883,-0.105026,0.045459,3.088036,-0.154186,0.754854,0.710095,-0.104724,-0.045443,-0.993463,0.214801,0.024722,-0.005088,-0.558456,23.926826,-51.605755,,,,,,,
1508184036.889884,-0.093497,0.042215,3.105127,-0.018975,0.528508,0.952127,-0.093278,-0.042202,-0.994745,0.163468,0.046139,-0.035009,0.260138,24.027515,-51.561321,,,,,,,
1508184036.909897,-0.085533,0.041107,3.124576,0.036919,0.426263,0.936507,-0.085357,-0.041096,-0.995503,0.107955,0.050327,-0.034832,1.010550,24.035200,-51.548489,,,,,,,
1508184036.929904,-0.077551,0.039332,3.141464,-0.083479,0.451088,0.789088,-0.077413,-0.039322,-0.996223,0.005102,0.012696,0.027336,2.331966,23.958979,-51.541130,,,,,,,
1508184036.949900,-0.067619,0.034448,-3.127720,-0.238254,0.583398,0.697716,-0.067527,-0.034441,-0.997123,-0.030251,-0.020979,0.019797,2.968787,24.031927,-51.474377,,,,,,,
1508184036.969917,-0.055315,0.029674,-3.113275,-0.138658,0.616285,0.752612,-0.055263,-0.029670,-0.998031,-0.078160,0.005027,-0.001527,3.930064,24.217154,-51.322926,,,,,,,
1508184036.989924,-0.044386,0.027580,-3.099390,-0.049935,0.538699,0.653438,-0.044354,-0.027577,-0.998635,-0.045947,0.056096,0.000298,4.676805,24.276709,-51.232098,,,,,,,
1508184037.009910,-0.036309,0.025420,-3.087131,-0.118974,0.316170,0.609800,-0.036289,-0.025417,-0.999018,-0.026303,0.013363,0.001643,5.753533,24.267647,-51.126675,,,,,,,
1508184037.029938,-0.032739,0.021157,-3.074996,-0.225417,0.126584,0.610497,-0.032726,-0.021155,-0.999240,-0.091007,-0.014779,-0.002438,6.353437,24.332830,-51.024559,,,,,,,
1508184037.049943,-0.029870,0.015697,-3.064575,-0.270084,0.245110,0.473391,-0.029862,-0.015696,-0.999431,-0.173798,0.018077,0.003154,6.579086,24.404100,-50.961891,,,,,,,
1508184037.069947,-0.022209,0.010745,-3.055753,-0.224694,0.413483,0.434661,-0.022206,-0.010745,-0.999696,-0.154277,0.038119,0.006715,7.288157,24.686253,-50.728989,,,,,,,
1508184037.089958,-0.015934,0.005275,-3.048301,-0.305813,0.253882,0.352799,-0.015933,-0.005275,-0.999859,-0.088147,0.017985,-0.035022,7.755381,24.810282,-50.599041,,,,,,,
1508184037.109965,-0.013365,-0.000991,-3.042400,-0.299182,0.070863,0.250950,-0.013365,0.000991,-0.999910,-0.095232,0.048601,-0.042769,8.209071,25.044125,-50.411919,,,,,,,
1508184037.129971,-0.014163,-0.007677,-3.038764,-0.372846,-0.090845,0.156317,-0.014162,0.007677,-0.999870,-0.052717,0.000380,-0.006905,8.451119,25.376537,-50.205265,,,,,,,
1508184037.149979,-0.013884,-0.016666,-3.034652,-0.448890,0.084662,0.294581,-0.013881,0.016665,-0.999765,-0.059513,-0.018557,0.013406,8.473423,25.744862,-50.013618,,,,,,,
1508184037.169968,-0.011812,-0.023012,-3.026838,-0.207799,0.081210,0.392550,-0.011808,0.023010,-0.999665,-0.164064,0.042832,-0.122100,8.802229,26.159178,-49.741100,,,,,,,
1508184037.189964,-0.009833,-0.024963,-3.022086,-0.055633,0.107216,0.153207,-0.009830,0.024961,-0.999640,-0.127576,0.024783,-0.135858,9.044833,26.238167,-49.655899,,,,,,,
1508184037.209972,-0.007069,-0.026149,-3.020729,-0.064778,0.150110,0.011840,-0.007067,0.026146,-0.999633,-0.145491,-0.000450,-0.112275,9.136991,26.252134,-49.631638,,,,,,,
1508184037.230006,-0.015227,-0.028997,-3.023014,-0.115681,0.179172,-0.149552,-0.015220,0.028993,-0.999464,-0.086480,0.007552,-0.040011,9.343994,26.368160,-49.531490,,,,,,,
1508184037.249992,-0.011035,-0.030830,-3.026038,-0.069712,0.211086,-0.134055,-0.011029,0.030825,-0.999464,-0.096042,-0.002810,-0.025911,8.900301,26.549679,-49.516239,,,,,,,
1508184037.270020,-0.008104,-0.031428,-3.028347,-0.010421,0.080017,-0.118337,-0.008100,0.031422,-0.999473,-0.088396,-0.003926,-0.007179,8.969173,26.591663,-49.481266,,,,,,,
1508184037.290025,-0.010951,-0.028932,-3.031702,-0.054204,-0.009348,-0.174590,-0.010946,0.028928,-0.999522,-0.021509,-0.021070,0.056895,8.971027,26.657660,-49.445408,,,,,,,
1508184037.310025,-0.011444,-0.031154,-3.034604,-0.143925,-0.008363,-0.123355,-0.011439,0.031149,-0.999449,0.002787,-0.031225,0.043089,8.718314,26.628181,-49.506462,,,,,,,
1508184037.330040,-0.012406,-0.034177,-3.036709,-0.144683,-0.089365,-0.100853,-0.012398,0.034170,-0.999339,0.020241,-0.026755,0.020228,8.683893,26.711945,-49.467373,,,,,,,
1508184037.350046,-0.014936,-0.036741,-3.037931,-0.123825,-0.169442,-0.011205,-0.014926,0.036733,-0.999214,0.040164,-0.019307,-0.036278,8.488935,26.944286,-49.375114,,,,,,,
1508184037.370048,-0.019864,-0.038954,-3.037685,-0.101128,-0.235511,-0.001733,-0.019847,0.038944,-0.999044,0.041011,-0.001454,-0.080332,8.330533,27.031189,-49.354591,,,,,,,
1508184037.390060,-0.023239,-0.040968,-3.038975,-0.111391,-0.121325,-0.092953,-0.023218,0.040957,-0.998891,0.029977,0.000547,-0.131053,8.155600,27.106819,-49.342327,,,,,,,
1508184037.410066,-0.022863,-0.043010,-3.040975,-0.091620,0.074661,-0.087280,-0.022840,0.042997,-0.998814,0.058301,-0.021970,-0.270885,7.974892,27.285206,-49.273499,,,,,,,
1508184037.430045,-0.021993,-0.043961,-3.043074,-0.017798,0.042751,-0.119928,-0.021970,0.043947,-0.998792,0.120725,-0.036119,-0.371645,7.982793,27.352993,-49.234615,,,,,,,
1508184037.450081,-0.021728,-0.043178,-3.046260,0.063369,0.020499,-0.188975,-0.021706,0.043165,-0.998832,0.146798,-0.041944,-0.426247,7.963149,27.380260,-49.222641,,,,,,,
1508184037.470087,-0.022966,-0.040185,-3.049974,0.185854,-0.119130,-0.162517,-0.022946,0.040175,-0.998929,0.180523,-0.131392,-0.568209,7.877896,27.351992,-49.252068,,,,,,,
1508184037.490091,-0.024982,-0.035750,-3.051554,0.253546,-0.084229,-0.044715,-0.024964,0.035742,-0.999049,0.122986,-0.153677,-0.550511,7.662784,27.164242,-49.389717,,,,,,,
1508184037.510100,-0.026836,-0.031195,-3.052820,0.192296,-0.074486,-0.115186,-0.026820,0.031190,-0.999154,0.107371,-0.130494,-0.555809,7.546003,26.928919,-49.536350,,,,,,,
1508184037.530108,-0.025314,-0.028016,-3.056282,0.179392,0.242013,-0.176280,-0.025302,0.028013,-0.999287,0.107623,-0.091154,-0.512203,7.478378,26.835720,-49.597145,,,,,,,
1508184037.550114,-0.018821,-0.018615,-3.057740,0.699875,0.263945,-0.022375,-0.018816,0.018614,-0.999650,0.060656,0.003679,-0.562393,7.605735,26.558144,-49.727016,,,,,,,
1508184037.570112,-0.018624,0.001819,-3.056640,1.153940,-0.137910,0.052422,-0.018623,-0.001819,-0.999825,0.102714,0.046405,-0.526817,7.788296,26.040903,-49.971714,,,,,,,
1508184037.590118,-0.025323,0.025044,-3.055288,1.100028,-0.374356,0.040963,-0.025312,-0.025041,-0.999366,0.158094,-0.017958,-0.348443,7.545214,24.321257,-50.867523,,,,,,,
1508184037.610134,-0.028432,0.044476,-3.052724,0.938890,-0.052812,0.139852,-0.028400,-0.044461,-0.998607,0.041080,0.023404,-0.304219,7.345391,23.271862,-51.385059,,,,,,,
1508184037.630142,-0.026103,0.063353,-3.047409,0.985710,0.239744,0.325376,-0.026047,-0.063311,-0.997654,0.022202,0.062639,-0.278866,7.371301,22.779432,-51.601551,,,,,,,
1508184037.650147,-0.024958,0.084770,-3.038504,1.157047,-0.051315,0.429700,-0.024865,-0.084669,-0.996099,0.098230,0.108152,-0.210368,7.831840,21.133423,-52.230255,,,,,,,
1508184037.670155,-0.031248,0.109699,-3.030202,1.305468,-0.416527,0.329322,-0.031055,-0.109480,-0.993504,0.127933,0.135801,-0.154201,7.804736,19.789019,-52.758312,,,,,,,
1508184037.690161,-0.045939,0.137066,-3.025320,1.368228,-0.899708,0.103828,-0.045492,-0.136637,-0.989576,0.121710,0.156626,-0.097674,7.617531,19.063042,-53.052166,,,,,,,
1508184037.710169,-0.063101,0.162119,-3.023683,1.198028,-0.643779,-0.011718,-0.062233,-0.161410,-0.984923,0.028511,0.164889,0.108108,6.317047,16.909122,-53.945667,,,,,,,
1508184037.730175,-0.064452,0.186761,-3.020646,1.320905,0.324156,0.154358,-0.063287,-0.185678,-0.980570,-0.089407,0.220925,0.180766,6.019859,15.596481,-54.373428,,,,,,,
1508184037.750181,-0.054970,0.216302,-3.011387,1.563057,0.559951,0.467448,-0.053662,-0.214619,-0.975222,-0.063907,0.267415,0.207370,6.274324,14.839014,-54.556347,,,,,,,
1508184037.770188,-0.054198,0.246573,-3.000728,1.480278,-0.130125,0.380485,-0.052533,-0.244082,-0.968331,0.225796,0.256655,0.266091,6.996455,13.094880,-54.913864,,,,,,,
1508184037.790195,-0.064591,0.274113,-2.993261,1.364231,-0.501549,0.223880,-0.062137,-0.270693,-0.960658,0.088504,0.296557,0.516551,6.851436,10.590789,-55.469379,,,,,,,
1508184037.810202,-0.073447,0.302806,-2.987721,1.527043,-0.292626,0.134358,-0.070042,-0.298199,-0.951930,0.050007,0.308469,0.552333,6.506991,9.415501,-55.722221,,,,,,,
1508184037.830209,-0.080365,0.332897,-2.982633,1.456268,-0.244667,0.131583,-0.075871,-0.326783,-0.942049,0.076283,0.220688,0.621660,6.134308,7.263056,-56.085442,,,,,,,
1508184037.850203,-0.086675,0.356127,-2.976855,0.976930,-0.178653,0.206693,-0.081135,-0.348647,-0.933736,0.083576,0.101043,0.668111,5.891194,5.783470,-56.283249,,,,,,,
1508184037.870223,-0.091112,0.369314,-2.969135,0.532915,-0.038223,0.353205,-0.084851,-0.360976,-0.928707,0.060834,0.113051,0.679561,5.794005,5.039215,-56.364834,,,,,,,
1508184037.890229,-0.094121,0.376157,-2.961722,0.329178,-0.011328,0.246338,-0.087411,-0.367349,-0.925967,0.046975,0.134637,0.673571,5.783470,4.555544,-56.407066,,,,,,,
1508184037.910236,-0.096439,0.381167,-2.958328,0.204792,-0.103645,0.082493,-0.089379,-0.372004,-0.923918,0.038338,0.134241,0.650801,5.785964,4.053316,-56.445122,,,,,,,
1508184037.930242,-0.098883,0.383034,-2.957215,0.005591,-0.108807,0.025137,-0.091568,-0.373736,-0.923004,0.042709,0.094531,0.657974,5.686833,3.830688,-56.470741,,,,,,,
1508184037.950223,-0.100474,0.379064,-2.957538,-0.317936,-0.007485,0.003651,-0.093185,-0.370051,-0.924326,0.042968,0.063060,0.626505,5.537413,3.939722,-56.478088,,,,,,,
1508184037.970237,-0.098056,0.369002,-2.957640,-0.605009,0.159707,0.064353,-0.091309,-0.360685,-0.928207,0.019730,0.050199,0.554153,5.627127,4.421110,-56.433571,,,,,,,
1508184037.990247,-0.092555,0.355091,-2.958616,-0.726662,0.302672,-0.032530,-0.086657,-0.347676,-0.933602,0.035265,0.059529,0.543404,5.730681,4.772900,-56.394478,,,,,,,
1508184038.010270,-0.085454,0.340228,-2.962680,-0.769771,0.270972,-0.155729,-0.080457,-0.333702,-0.939239,0.084684,0.085594,0.421371,6.202067,6.018961,-56.225128,,,,,,,
1508184038.030265,-0.080526,0.324153,-2.967223,-0.868731,0.109034,-0.131980,-0.076250,-0.318506,-0.944849,0.104295,0.076730,0.347895,6.421205,6.930191,-56.095448,,,,,,,
1508184038.050283,-0.075411,0.306143,-2.970926,-0.908706,0.282597,-0.091815,-0.071837,-0.301383,-0.950793,0.114363,0.078757,0.345645,6.475385,7.434834,-56.024559,,,,,,,
1508184038.070290,-0.068344,0.288359,-2.973802,-0.890455,0.298505,-0.059004,-0.065471,-0.284379,-0.956474,0.117915,0.147752,0.247016,6.906987,8.972930,-55.747097,,,,,,,
1508184038.090293,-0.062912,0.271404,-2.975919,-0.813172,0.217528,-0.058954,-0.060569,-0.268084,-0.961490,0.127052,0.150179,0.214419,7.130163,9.713065,-55.594746,,,,,,,
1508184038.110304,-0.058162,0.256835,-2.979648,-0.710593,0.143162,-0.172047,-0.056222,-0.254021,-0.965563,0.088693,0.175224,0.225985,7.305641,10.396281,-55.448208,,,,,,,
1508184038.130310,-0.054126,0.242551,-2.983329,-0.739410,0.192035,-0.104490,-0.052516,-0.240180,-0.969307,0.163386,0.039359,0.260216,7.522840,11.626760,-55.174126,,,,,,,
1508184038.150291,-0.048948,0.227765,-2.985816,-0.739422,0.225005,-0.078311,-0.047665,-0.225801,-0.973007,0.125576,0.063676,0.224990,7.685075,12.252730,-55.016079,,,,,,,
1508184038.170325,-0.044841,0.212537,-2.987981,-0.800149,0.155742,-0.059134,-0.043818,-0.210940,-0.976516,0.092844,0.093432,0.203704,7.855218,12.872859,-54.850197,,,,,,,
1508184038.190331,-0.039580,0.194677,-2.990080,-0.941054,0.376327,-0.082487,-0.038822,-0.193450,-0.980342,0.128147,0.158751,0.156535,8.132264,14.245328,-54.469215,,,,,,,
1508184038.210319,-0.026790,0.177249,-2.993114,-0.793361,0.668277,-0.139080,-0.026368,-0.176322,-0.983979,0.081009,0.181892,0.039079,8.514755,15.015963,-54.203125,,,,,,,
1508184038.230345,-0.015087,0.165464,-2.995659,-0.454459,0.468886,-0.085261,-0.014880,-0.164710,-0.986230,0.079898,0.156028,-0.004203,9.171864,15.854691,-53.855957,,,,,,,
1508184038.250351,-0.009962,0.160445,-2.996665,-0.154635,0.096934,-0.029975,-0.009834,-0.159757,-0.987107,0.118721,0.135008,0.016862,9.528797,16.233042,-53.680992,,,,,,,
1508184038.270354,0.001428,0.155123,-2.998546,-0.176069,-0.184379,0.037031,0.001411,-0.154502,-0.987992,0.084755,0.015509,-0.002182,9.663088,16.460972,-53.587498,,,,,,,
1508184038.290365,0.000906,0.146180,-2.997600,-0.593397,0.177908,0.035289,0.000897,-0.145660,-0.989334,0.053516,-0.008072,-0.086151,10.175040,16.893545,-53.357616,,,,,,,
1508184038.310353,0.008495,0.133399,-2.997486,-0.601675,0.395307,-0.009443,0.008419,-0.133004,-0.991080,0.004322,0.020715,-0.119516,10.236741,17.183018,-53.253281,,,,,,,
1508184038.330375,0.011126,0.124107,-2.997798,-0.393869,-0.046803,-0.015983,0.011041,-0.123789,-0.992247,0.108482,-0.015066,-0.229127,19.559797,20.753973,-43.244213,,,,,,,
1508184038.350383,0.004826,0.117929,-2.996283,-0.259463,-0.456200,0.141268,0.004792,-0.117656,-0.993043,0.133605,-0.090795,-0.234084,19.516388,20.918243,-43.184635,,,,,,,
1508184038.370392,-0.007808,0.112048,-2.991349,-0.366537,-0.617348,0.303630,-0.007759,-0.111813,-0.993699,0.012382,-0.161746,-0.204177,18.997681,21.189495,-43.283585,,,,,,,
1508184038.390373,-0.018151,0.099801,-2.984502,-0.812164,-0.421274,0.333109,-0.018060,-0.099635,-0.994860,-0.014991,-0.154500,-0.234876,18.684607,21.490761,-43.271328,,,,,,,
1508184038.410405,-0.023084,0.076868,-2.982286,-1.257256,-0.099827,-0.017767,-0.023014,-0.076792,-0.996782,-0.012295,-0.162664,-0.304000,18.579130,21.821362,-43.151119,,,,,,,
1508184038.430412,-0.023052,0.053547,-2.987203,-1.094665,-0.002413,-0.277346,-0.023017,-0.053521,-0.998301,0.027335,0.017266,-0.500066,18.404795,23.389738,-42.397629,,,,,,,
1508184038.450396,-0.023566,0.033565,-2.989878,-0.943664,-0.062729,0.035841,-0.023550,-0.033559,-0.999159,0.111822,-0.104335,-0.545320,18.300774,24.335514,-41.907513,,,,,,,
1508184038.470426,-0.026623,0.017048,-2.985645,-0.734683,-0.224194,0.317397,-0.026616,-0.017047,-0.999500,0.119923,-0.107907,-0.520290,18.289993,24.705931,-41.694942,,,,,,,
1508184038.490432,-0.033060,0.005624,-2.979459,-0.457342,-0.339219,0.273006,-0.033053,-0.005624,-0.999438,0.064944,-0.024451,-0.415464,18.221605,25.403784,-41.303703,,,,,,,
1508184038.510435,-0.036975,-0.000610,-2.977785,-0.251347,-0.092667,0.004833,-0.036966,0.000610,-0.999316,-0.015326,-0.009811,-0.360684,18.118265,25.589941,-41.234192,,,,,,,
1508184038.530445,-0.035794,-0.005387,-2.979141,-0.247008,0.155703,-0.080877,-0.035785,0.005386,-0.999345,-0.019421,-0.054703,-0.343596,18.062618,25.746265,-41.161232,,,,,,,
1508184038.550452,-0.030761,-0.010130,-2.981385,-0.216415,0.271864,-0.110308,-0.030755,0.010130,-0.999476,0.063393,-0.024000,-0.245611,18.202974,26.093958,-40.879482,,,,,,,
1508184038.570459,-0.026823,-0.012163,-2.982426,-0.017682,0.132048,0.000333,-0.026818,0.012163,-0.999566,0.098992,-0.010896,-0.183692,18.319721,26.227802,-40.741444,,,,,,,
1508184038.590467,-0.027357,-0.009964,-2.981303,0.156576,-0.095037,0.073871,-0.027353,0.009964,-0.999576,0.100747,-0.008347,-0.167675,18.395903,26.238516,-40.700199,,,,,,,
1508184038.610473,-0.028531,-0.006795,-2.979548,0.155326,-0.024748,0.082450,-0.028526,0.006795,-0.999570,0.021995,-0.037389,-0.092120,18.374207,26.017374,-40.851685,,,,,,,
1508184038.630480,-0.027894,-0.003737,-2.978532,0.161270,0.061671,0.014015,-0.027890,0.003737,-0.999604,-0.013552,-0.009841,-0.051391,18.415327,25.869011,-40.927315,,,,,,,
1508184038.650487,-0.025359,0.000030,-2.978911,0.202533,0.167215,-0.034464,-0.025357,-0.000030,-0.999678,-0.055149,-0.024552,-0.036943,18.466595,25.764740,-40.969967,,,,,,,
1508184038.670494,-0.031063,0.009233,-2.979984,0.283698,0.161961,-0.092029,-0.031057,-0.009233,-0.999475,-0.064662,-0.009826,-0.041831,18.521284,25.689707,-40.992393,,,,,,,
1508184038.690480,-0.029045,0.014422,-2.982351,0.221747,0.072590,-0.138670,-0.029038,-0.014421,-0.999474,-0.068375,-0.005598,-0.010139,18.273426,25.243662,-41.378918,,,,,,,
1508184038.710506,-0.040064,0.017081,-2.985118,0.172505,0.051317,-0.163913,-0.040048,-0.017080,-0.999052,-0.086508,0.009359,0.000089,18.265339,25.117012,-41.459476,,,,,,,
1508184038.730510,-0.039356,0.020788,-2.988073,0.200487,0.013996,-0.148464,-0.039337,-0.020787,-0.999010,-0.123505,0.026203,0.004213,17.704643,25.050091,-41.742233,,,,,,,
1508184038.750509,-0.040174,0.026116,-2.991598,0.296904,-0.105187,-0.222515,-0.040150,-0.026113,-0.998852,-0.135754,0.032018,0.007367,17.607857,24.912916,-41.865082,,,,,,,
1508184038.770528,-0.042495,0.032362,-2.997367,0.276169,-0.087920,-0.331513,-0.042460,-0.032356,-0.998574,-0.141760,0.035225,0.037011,17.496674,24.827597,-41.962269,,,,,,,
1508184038.790534,-0.043423,0.037019,-3.003781,0.193726,-0.071920,-0.331683,-0.043380,-0.037011,-0.998373,-0.146699,0.033898,0.031118,17.148830,24.664543,-42.201340,,,,,,,
1508184038.810539,-0.045316,0.041367,-3.011069,0.222565,-0.130376,-0.401233,-0.045261,-0.041355,-0.998119,-0.158260,0.043323,0.017955,16.964840,24.632933,-42.294067,,,,,,,
1508184038.830548,-0.048301,0.046926,-3.019639,0.272859,-0.196314,-0.461094,-0.048229,-0.046909,-0.997734,-0.163669,0.042255,0.020699,16.735163,24.592772,-42.408787,,,,,,,
1508184038.850554,-0.066698,0.048737,-3.028555,0.225528,-0.175991,-0.516795,-0.066570,-0.048717,-0.996592,-0.131749,0.029552,0.054606,15.533467,24.632866,-42.840500,,,,,,,
1508184038.870536,-0.069762,0.052933,-3.039287,0.141988,-0.199316,-0.561179,-0.069608,-0.052908,-0.996170,-0.109653,0.019339,0.039704,15.224722,24.624289,-42.956108,,,,,,,
1508184038.890568,-0.074213,0.056262,-3.050412,0.133712,-0.296249,-0.561899,-0.074028,-0.056232,-0.995670,-0.109657,0.032703,0.031512,14.888636,24.657707,-43.054630,,,,,,,
1508184038.910575,-0.093333,0.055874,-3.061174,0.164914,-0.405918,-0.606178,-0.093052,-0.055845,-0.994094,-0.077023,0.023023,0.048308,13.554529,24.901112,-43.354176,,,,,,,
1508184038.930567,-0.099755,0.058777,-3.073118,0.035275,-0.330293,-0.586917,-0.099417,-0.058743,-0.993310,-0.049142,-0.016193,0.036157,13.073540,24.935022,-43.482208,,,,,,,
1508184038.950589,-0.105298,0.058242,-3.083915,-0.171149,-0.276073,-0.507576,-0.104925,-0.058209,-0.992775,-0.017817,-0.012088,0.040825,12.635393,25.025154,-43.559887,,,,,,,
1508184038.970594,-0.110284,0.054175,-3.094149,-0.197588,-0.377271,-0.502889,-0.109899,-0.054148,-0.992467,0.095845,0.105647,-0.035106,11.899885,25.462015,-43.513832,,,,,,,
1508184038.990592,-0.119665,0.053732,-3.105141,-0.044101,-0.580687,-0.543773,-0.119207,-0.053706,-0.991416,0.121725,0.048564,-0.035852,11.420855,25.647568,-43.533226,,,,,,,
1508184039.010609,-0.132168,0.053995,-3.115709,-0.093050,-0.635071,-0.508826,-0.131592,-0.053969,-0.989834,0.121887,0.022017,-0.032185,10.617731,25.804077,-43.643883,,,,,,,
1508184039.030615,-0.141173,0.051449,-3.125160,-0.246528,-0.366799,-0.405971,-0.140519,-0.051426,-0.988742,0.108979,0.012837,0.001681,9.683300,26.072315,-43.701752,,,,,,,
1508184039.050620,-0.145776,0.047050,-3.133897,-0.283408,-0.229318,-0.434595,-0.145099,-0.047033,-0.988299,0.234439,0.075002,-0.019056,9.328504,26.301884,-43.641323,,,,,,,
1508184039.070629,-0.153421,0.044496,3.137768,-0.196449,-0.502782,-0.595971,-0.152668,-0.044481,-0.987276,0.277989,0.046587,-0.030851,8.834951,26.611095,-43.556492,,,,,,,
1508184039.090636,-0.163498,0.041427,3.125803,-0.285102,-0.492227,-0.536344,-0.162631,-0.041415,-0.985817,0.229983,-0.015485,-0.005073,8.274185,26.817781,-43.539864,,,,,,,
1508184039.110618,-0.171492,0.036501,3.113930,-0.391548,-0.358974,-0.572319,-0.170539,-0.036492,-0.984675,0.310477,0.002221,-0.034398,7.361481,27.228762,-43.448570,,,,,,,
1508184039.130650,-0.176624,0.030231,3.100574,-0.406963,-0.239614,-0.597497,-0.175627,-0.030227,-0.983993,0.315336,0.030196,-0.077195,6.743427,27.658518,-43.277103,,,,,,,
1508184039.150656,-0.182070,0.025327,3.088777,-0.299380,-0.341009,-0.511869,-0.181007,-0.025324,-0.983156,0.350380,0.034907,-0.055525,6.467177,27.877825,-43.178440,,,,,,,
1508184039.170646,-0.188281,0.022246,3.075688,-0.276596,-0.294827,-0.703424,-0.187124,-0.022245,-0.982084,0.422201,0.032010,-0.052095,5.611394,28.392071,-42.962513,,,,,,,
1508184039.190653,-0.191958,0.018725,3.058766,-0.365109,-0.153977,-0.812030,-0.190747,-0.018724,-0.981461,0.475659,0.020753,-0.075653,4.964249,28.718599,-42.824913,,,,,,,
1508184039.210651,-0.193469,0.014525,3.043620,-0.301616,-0.044695,-0.601469,-0.192244,-0.014525,-0.981240,0.459868,0.041609,-0.075248,4.270858,29.194191,-42.577389,,,,,,,
1508184039.230669,-0.193916,0.013136,3.034441,-0.071867,-0.038837,-0.362875,-0.192686,-0.013136,-0.981173,0.478193,0.049650,-0.050367,4.018317,29.383205,-42.471821,,,,,,,
1508184039.250691,-0.195232,0.013768,3.028364,-0.039325,-0.079521,-0.264209,-0.193975,-0.013768,-0.980910,0.490118,0.023243,-0.022340,3.830207,29.453379,-42.440586,,,,,,,
1508184039.270697,-0.196072,0.012410,3.024245,-0.156861,-0.005166,-0.143641,-0.194803,-0.012410,-0.980764,0.481318,0.013371,-0.003520,3.526809,29.553984,-42.396919,,,,,,,
1508184039.290702,-0.194785,0.008492,3.022515,-0.220832,0.105290,0.028612,-0.193549,-0.008492,-0.981054,0.481360,0.029916,-0.003046,3.491881,29.676693,-42.314014,,,,,,,
1508184039.310711,-0.192732,0.004665,3.025184,-0.114163,0.075040,0.227303,-0.191539,-0.004665,-0.981474,0.483211,0.048214,-0.016405,3.570546,29.811907,-42.212284,,,,,,,
1508184039.330717,-0.191411,0.002778,3.030256,-0.010180,0.077025,0.286909,-0.190243,-0.002778,-0.981733,0.444226,0.031709,-0.002245,3.874798,29.914776,-42.112553,,,,,,,
1508184039.350723,-0.188962,0.001628,3.036274,-0.008181,0.151542,0.311418,-0.187839,-0.001628,-0.982198,0.452396,0.016261,0.004049,4.068452,29.897924,-42.106258,,,,,,,
1508184039.370732,-0.183898,-0.001145,3.042584,-0.126186,0.314440,0.367791,-0.182863,0.001145,-0.983138,0.451341,0.005447,0.008193,4.307074,29.885759,-42.091156,,,,,,,
1508184039.390723,-0.177742,-0.006304,3.051073,-0.182229,0.258776,0.523253,-0.176805,0.006304,-0.984226,0.474046,0.016523,-0.037503,5.036942,30.000248,-41.928387,,,,,,,
1508184039.410735,-0.173592,-0.010977,3.063703,-0.053853,0.163471,0.756992,-0.172711,0.010977,-0.984911,0.373181,0.025004,-0.075590,5.588946,30.063179,-41.813206,,,,,,,
1508184039.430752,-0.171330,-0.012151,3.079966,0.145500,0.095172,0.794087,-0.170481,0.012151,-0.985286,0.299860,0.010936,-0.064458,6.029522,29.990313,-41.804321,,,,,,,
1508184039.450758,-0.167136,-0.011395,3.093403,0.134592,0.263962,0.553862,-0.166348,0.011395,-0.986001,0.260175,-0.002362,-0.040656,6.731886,29.721621,-41.888924,,,,,,,
1508184039.470756,-0.159405,-0.011431,3.101186,-0.000542,0.461553,0.309048,-0.158720,0.011430,-0.987257,0.251662,-0.007631,0.004286,7.138282,29.600561,-41.907360,,,,,,,
1508184039.490773,-0.146866,-0.013616,3.107681,-0.065133,0.699986,0.406937,-0.146325,0.013615,-0.989143,0.227929,-0.009511,0.021614,7.741088,29.565964,-41.824688,,,,,,,
1508184039.510779,-0.134384,-0.015571,3.119890,0.025271,0.520351,0.733630,-0.133963,0.015570,-0.990864,0.247687,-0.012946,-0.046764,8.354753,29.554213,-41.714767,,,,,,,
1508184039.530779,-0.128023,-0.015526,3.135156,0.143868,0.190152,0.707407,-0.127658,0.015526,-0.991697,0.196444,0.054131,-0.058550,9.405914,29.365559,-41.624126,,,,,,,
1508184039.550793,-0.125135,-0.013297,-3.135962,0.199070,0.144687,0.529953,-0.124798,0.013296,-0.992093,0.137798,0.047678,-0.041400,9.839291,29.174568,-41.658230,,,,,,,
1508184039.570782,-0.120743,-0.011467,-3.126143,0.094683,0.270547,0.462095,-0.120442,0.011466,-0.992654,0.043965,-0.002097,0.025598,10.497999,28.788481,-41.765900,,,,,,,
1508184039.590791,-0.113671,-0.013302,-3.116166,-0.099110,0.389753,0.536219,-0.113416,0.013301,-0.993459,0.038373,-0.001842,0.066457,11.043319,28.670368,-41.706478,,,,,,,
1508184039.610800,-0.105150,-0.017651,-3.105169,-0.163261,0.445029,0.602642,-0.104940,0.017650,-0.994322,0.037969,0.003636,0.031782,11.363646,28.658068,-41.628811,,,,,,,
1508184039.630819,-0.097641,-0.020294,-3.091451,0.037796,0.242364,0.713127,-0.097466,0.020293,-0.995032,0.007683,0.043825,-0.015970,12.421678,28.593172,-41.370369,,,,,,,
1508184039.650810,-0.095757,-0.018377,-3.079901,0.181081,0.011656,0.471116,-0.095594,0.018376,-0.995251,0.002256,0.012859,0.030529,12.894587,28.339212,-41.400406,,,,,,,
1508184039.670833,-0.094070,-0.017366,-3.070898,0.004170,0.128879,0.469549,-0.093917,0.017365,-0.995429,-0.041856,-0.015946,0.066901,13.027632,28.207972,-41.448357,,,,,,,
1508184039.690840,-0.090685,-0.021388,-3.061282,-0.247391,0.181103,0.487107,-0.090541,0.021387,-0.995663,-0.084676,-0.025079,0.053112,13.582448,28.054914,-41.374073,,,,,,,
1508184039.710818,-0.086719,-0.027845,-3.053062,-0.270131,0.185527,0.408154,-0.086577,0.027841,-0.995856,-0.150605,0.007574,-0.002435,13.994085,28.159403,-41.165382,,,,,,,
1508184039.730854,-0.081880,-0.032374,-3.046868,-0.173427,0.274169,0.282039,-0.081746,0.032368,-0.996127,-0.178661,0.046047,0.027362,14.182730,28.208233,-41.067272,,,,,,,
1508184039.750859,-0.077606,-0.036013,-3.041945,-0.176383,0.141102,0.239186,-0.077478,0.036005,-0.996344,-0.147818,0.039098,-0.052576,14.717554,28.294455,-40.819023,,,,,,,
1508184039.770843,-0.074469,-0.039477,-3.038631,-0.124358,0.197695,0.164751,-0.074342,0.039467,-0.996451,-0.226211,0.051292,-0.054040,14.882814,28.358349,-40.714626,,,,,,,
1508184039.790874,-0.069564,-0.041034,-3.034898,-0.014146,0.235949,0.198236,-0.069450,0.041023,-0.996742,-0.216378,0.058678,-0.058800,15.074993,28.398855,-40.615570,,,,,,,
1508184039.810880,-0.067399,-0.040175,-3.032016,0.067388,0.039089,0.083736,-0.067293,0.040164,-0.996925,-0.132444,0.047070,-0.046441,15.448740,28.318262,-40.531319,,,,,,,
1508184039.830863,-0.066346,-0.039667,-3.031165,0.016859,0.061576,0.031199,-0.066245,0.039657,-0.997015,-0.125954,0.024125,-0.015421,15.500931,28.275059,-40.541550,,,,,,,
1508184039.850895,-0.064652,-0.040332,-3.031659,-0.084151,0.096951,-0.067338,-0.064554,0.040321,-0.997099,-0.074163,0.021096,-0.009065,15.550357,28.259420,-40.533527,,,,,,,
1508184039.870900,-0.062403,-0.043645,-3.032813,-0.196342,0.120270,0.004917,-0.062303,0.043631,-0.997103,0.030794,-0.039725,-0.040983,15.630779,28.409876,-40.397186,,,,,,,
1508184039.890891,-0.061571,-0.046403,-3.031503,-0.074763,-0.016269,0.084646,-0.061466,0.046386,-0.997031,0.039493,0.025193,-0.049921,15.720211,28.525282,-40.280991,,,,,,,
1508184039.910914,-0.063227,-0.045825,-3.031184,0.072772,-0.103415,-0.035760,-0.063119,0.045809,-0.996954,0.045541,0.015394,-0.028559,15.716220,28.528009,-40.280621,,,,,,,
1508184039.930921,-0.064363,-0.044680,-3.032736,0.031596,0.003241,-0.096988,-0.064254,0.044665,-0.996934,0.062881,-0.005908,-0.004775,15.669734,28.505211,-40.314857,,,,,,,
1508184039.950927,-0.062985,-0.044474,-3.034860,-0.010475,0.101283,-0.112241,-0.062881,0.044459,-0.997030,0.107590,-0.008769,-0.011911,15.573477,28.499186,-40.356392,,,,,,,
1508184039.970934,-0.061234,-0.044859,-3.036583,-0.024076,0.052185,-0.061402,-0.061134,0.044844,-0.997122,0.142784,-0.025206,-0.039362,15.596458,28.543999,-40.315826,,,,,,,
1508184039.990930,-0.061331,-0.045015,-3.037177,0.000931,-0.025686,-0.010175,-0.061231,0.045000,-0.997109,0.117246,-0.009768,-0.042579,15.591751,28.581211,-40.291275,,,,,,,
1508184040.010948,-0.062118,-0.044534,-3.037819,0.026433,-0.023455,-0.063542,-0.062017,0.044519,-0.997082,0.106679,-0.004282,-0.041233,15.549232,28.574862,-40.312206,,,,,,,
1508184040.030955,-0.062003,-0.043868,-3.039822,0.026151,0.011807,-0.118435,-0.061904,0.043854,-0.997118,0.113738,-0.016831,-0.066328,15.523339,28.575832,-40.321491,,,,,,,
1508184040.050961,-0.062057,-0.044244,-3.042438,-0.053071,0.012914,-0.129054,-0.061956,0.044229,-0.997098,0.143911,-0.047861,-0.152178,15.429763,28.625216,-40.322384,,,,,,,
1508184040.070969,-0.060894,-0.044800,-3.044333,-0.000577,0.064964,-0.062671,-0.060795,0.044785,-0.997145,0.121021,-0.042160,-0.220659,15.406860,28.696579,-40.280392,,,,,,,
1508184040.090975,-0.060232,-0.043570,-3.045128,0.085164,0.041467,-0.042135,-0.060139,0.043556,-0.997239,0.128269,-0.042183,-0.238936,15.412472,28.699921,-40.275867,,,,,,,
1508184040.110982,-0.059890,-0.041579,-3.046088,0.091676,-0.021326,-0.071086,-0.059803,0.041567,-0.997344,0.125736,-0.087054,-0.320084,15.417996,28.650957,-40.308598,,,,,,,
1508184040.130989,-0.060477,-0.039236,-3.048672,0.129768,0.005511,-0.179200,-0.060394,0.039226,-0.997404,0.087921,-0.067867,-0.425417,15.326043,28.572199,-40.399467,,,,,,,
1508184040.150990,-0.059046,-0.035410,-3.052856,0.210668,0.105703,-0.219101,-0.058975,0.035403,-0.997631,0.100845,-0.081774,-0.445728,15.262962,28.529112,-40.453762,,,,,,,
1508184040.171002,-0.057463,-0.030429,-3.056135,0.237632,0.110882,-0.148820,-0.057405,0.030425,-0.997887,0.108689,-0.145812,-0.457694,15.206201,28.379784,-40.579975,,,,,,,
1508184040.191001,-0.054729,-0.025090,-3.056978,0.293766,0.095679,-0.011089,-0.054685,0.025087,-0.998188,0.115277,-0.112047,-0.525234,15.269550,28.204365,-40.678368,,,,,,,
1508184040.211017,-0.054948,-0.017795,-3.057979,0.362273,-0.045771,-0.132780,-0.054912,0.017794,-0.998333,0.115504,-0.104754,-0.525090,15.286708,28.006851,-40.808186,,,,,,,
1508184040.231022,-0.057253,-0.011305,-3.061871,0.300214,-0.165911,-0.240820,-0.057218,0.011305,-0.998298,0.137861,-0.098890,-0.524652,15.203056,27.817326,-40.968754,,,,,,,
1508184040.251029,-0.057239,-0.003900,-3.065704,0.485692,0.155598,-0.167782,-0.057207,0.003900,-0.998355,0.045702,0.003363,-0.517255,14.922592,27.594976,-41.221458,,,,,,,
1508184040.271037,-0.054896,0.011686,-3.066096,0.886704,0.044416,-0.019321,-0.054864,-0.011686,-0.998425,0.156381,0.032010,-0.466098,14.956374,27.175680,-41.486919,,,,,,,
1508184040.291043,-0.055273,0.029700,-3.064610,0.883012,-0.065464,0.062248,-0.055220,-0.029696,-0.998033,0.219283,0.015612,-0.399322,14.977501,26.820827,-41.709621,,,,,,,
1508184040.311027,-0.058626,0.047137,-3.061410,0.917788,-0.189144,0.114132,-0.058528,-0.047120,-0.997173,0.111872,0.096299,-0.280247,14.921150,25.480175,-42.561661,,,,,,,
1508184040.331055,-0.061876,0.068299,-3.058522,1.170967,-0.113452,0.052065,-0.061692,-0.068246,-0.995759,0.070756,0.141488,-0.211486,14.867066,25.061752,-42.828194,,,,,,,
1508184040.351037,-0.063032,0.094741,-3.056847,1.414317,0.026163,-0.013054,-0.062708,-0.094599,-0.993538,0.122400,0.171381,-0.115501,14.754321,23.490726,-43.747810,,,,,,,
1508184040.371055,-0.062766,0.126908,-3.052614,1.706353,-0.056386,0.213980,-0.062221,-0.126568,-0.990005,0.158458,0.164944,0.020537,14.828991,22.112335,-44.435581,,,,,,,
1508184040.391078,-0.069345,0.161379,-3.044499,1.713837,-0.321779,0.299928,-0.068389,-0.160679,-0.984635,0.182540,0.165745,0.097077,14.832231,21.305466,-44.826973,,,,,,,
1508184040.411084,-0.073020,0.194144,-3.034255,1.685354,0.066739,0.449995,-0.071584,-0.192927,-0.978599,0.064535,0.231836,0.384467,14.722124,18.837059,-45.954323,,,,,,,
1508184040.431083,-0.070978,0.228979,-3.022900,1.830071,0.242646,0.359899,-0.069068,-0.226984,-0.971446,0.114203,0.311517,0.436290,15.047979,17.092487,-46.527199,,,,,,,
1508184040.451098,-0.069933,0.265845,-3.016253,1.839635,0.005569,0.123412,-0.067421,-0.262725,-0.962512,0.167626,0.297454,0.454791,15.210428,16.182789,-46.798882,,,,,,,
1508184040.471105,-0.076558,0.301357,-3.010855,1.775545,-0.356664,0.158570,-0.073037,-0.296817,-0.952137,0.189355,0.266467,0.527424,15.188240,13.529110,-47.640903,,,,,,,
1508184040.491111,-0.085415,0.335087,-3.003321,1.647119,-0.253481,0.246739,-0.080567,-0.328851,-0.940939,0.125672,0.249902,0.650717,14.964078,12.225522,-48.062332,,,,,,,
1508184040.511118,-0.089265,0.364410,-2.995092,1.402299,0.044824,0.257525,-0.083293,-0.356398,-0.930614,0.117030,0.236571,0.694240,14.828252,10.981036,-48.403667,,,,,,,
1508184040.531125,-0.090452,0.388316,-2.987394,1.091831,0.075830,0.239181,-0.083604,-0.378631,-0.921764,0.140168,0.149291,0.709697,14.957136,8.877463,-48.793953,,,,,,,
1508184040.551128,-0.092597,0.405148,-2.979914,0.721973,0.001256,0.289590,-0.084980,-0.394155,-0.915107,0.089603,0.113988,0.686728,15.036691,8.084135,-48.907253,,,,,,,
1508184040.571140,-0.096161,0.414597,-2.973312,0.385887,-0.047518,0.218041,-0.087879,-0.402821,-0.911050,0.073367,0.134022,0.656931,15.070950,7.488157,-48.991524,,,,,,,
1508184040.591145,-0.097546,0.419062,-2.969704,0.157329,0.028424,0.091288,-0.088964,-0.406904,-0.909129,0.066213,0.133741,0.640955,15.059188,7.002419,-49.066914,,,,,,,
1508184040.611137,-0.096027,0.419343,-2.968576,-0.068948,0.154254,0.053378,-0.087572,-0.407160,-0.909149,0.059344,0.096171,0.613952,15.116120,6.773851,-49.081490,,,,,,,
1508184040.631147,-0.091295,0.414936,-2.968284,-0.309195,0.280124,-0.002648,-0.083432,-0.403131,-0.911331,0.062146,0.133172,0.543716,15.294416,6.854702,-49.014984,,,,,,,
1508184040.651165,-0.084174,0.406040,-2.970649,-0.521499,0.325101,-0.094843,-0.077238,-0.394975,-0.915439,0.110075,0.102219,0.473774,15.643936,7.318089,-48.837364,,,,,,,
1508184040.671165,-0.076620,0.394121,-2.973735,-0.656189,0.288898,-0.085687,-0.070677,-0.383997,-0.920626,0.103163,0.078500,0.381517,15.947695,7.905837,-48.647137,,,,,,,
1508184040.691179,-0.070494,0.379533,-2.976909,-0.775960,0.248476,-0.098872,-0.065424,-0.370486,-0.926531,0.107980,0.071033,0.355959,16.073959,8.247715,-48.548717,,,,,,,
1508184040.711159,-0.064498,0.363605,-2.980376,-0.819808,0.218700,-0.118668,-0.060240,-0.355646,-0.932677,0.109129,0.112314,0.288970,16.399658,9.423832,-48.224655,,,,,,,
1508184040.731193,-0.058625,0.346798,-2.984912,-0.870348,0.227371,-0.186999,-0.055103,-0.339888,-0.938850,0.103061,0.145857,0.262047,16.576000,10.278587,-47.989185,,,,,,,
1508184040.751179,-0.051043,0.329694,-2.990354,-0.842892,0.330729,-0.205579,-0.048273,-0.323754,-0.944909,0.111429,0.130593,0.238534,16.669973,10.730473,-47.857540,,,,,,,
1508184040.771206,-0.043656,0.313891,-2.994119,-0.790959,0.255935,-0.097903,-0.041510,-0.308762,-0.950233,0.160086,0.124421,0.189094,17.057150,12.012258,-47.414494,,,,,,,
1508184040.791210,-0.039045,0.297771,-2.996234,-0.812069,0.190899,-0.067088,-0.037317,-0.293391,-0.955264,0.129373,0.139261,0.191943,17.241852,12.798436,-47.141212,,,,,,,
1508184040.811220,-0.035126,0.282012,-2.999491,-0.792930,0.115476,-0.173705,-0.033732,-0.278288,-0.959905,0.100291,0.157973,0.175207,17.319740,13.191559,-47.004089,,,,,,,
1508184040.831227,-0.031084,0.265350,-3.004629,-0.879869,0.153939,-0.220048,-0.029991,-0.262247,-0.964535,0.149635,0.080179,0.140652,17.430344,14.421371,-46.600243,,,,,,,
1508184040.851218,-0.025865,0.246726,-3.007343,-0.939416,0.248355,-0.017709,-0.025078,-0.244231,-0.969393,0.119622,0.071913,0.118364,15.105212,10.568411,-54.325809,,,,,,,
1508184040.871240,-0.025052,0.227738,-3.007444,-0.965114,-0.109554,-0.018897,-0.024403,-0.225775,-0.973874,0.116230,0.087805,0.024289,15.291841,11.338211,-54.117985,,,,,,,
1508184040.891247,-0.025185,0.208796,-3.011346,-0.906390,0.066613,-0.228359,-0.024635,-0.207282,-0.977971,0.054573,0.100684,-0.047526,15.186106,12.921049,-53.792015,,,,,,,
1508184040.911247,-0.019989,0.193295,-3.016199,-0.655433,0.261445,-0.206847,-0.019616,-0.192093,-0.981181,0.059502,0.073899,-0.030172,15.250229,13.660258,-53.590858,,,,,,,
1508184040.931261,-0.012769,0.181113,-3.020990,-0.636481,0.311606,-0.256639,-0.012560,-0.180124,-0.983564,0.132754,0.059534,-0.029773,15.423170,14.265097,-53.383377,,,,,,,
1508184040.951267,-0.007023,0.165754,-3.026874,-0.859641,0.148680,-0.256241,-0.006926,-0.164997,-0.986270,0.247267,-0.028943,-0.084531,15.773206,15.467218,-52.944527,,,,,,,
1508184040.971275,-0.008099,0.147519,-3.028560,-0.887708,-0.182101,0.026882,-0.008011,-0.146985,-0.989106,0.209992,-0.011203,-0.149260,15.776442,16.223635,-52.716694,,,,,,,
1508184040.991282,-0.013765,0.132494,-3.026830,-0.648491,-0.295236,0.107249,-0.013644,-0.132106,-0.991142,0.155963,0.031337,-0.157052,15.578077,17.116436,-52.492886,,,,,,,
1508184041.011287,-0.019997,0.122788,-3.024611,-0.425766,-0.307081,0.143508,-0.019845,-0.122480,-0.992273,0.092813,-0.087542,-0.210440,15.375574,17.601349,-52.392139,,,,,,,
1508184041.031272,-0.027912,0.111901,-3.020931,-0.629772,-0.371059,0.201103,-0.027734,-0.111667,-0.993359,0.081384,-0.190121,-0.223545,15.016836,18.153378,-52.307758,,,,,,,
1508184041.051302,-0.033001,0.096664,-3.018808,-0.826610,-0.177927,0.063029,-0.032841,-0.096513,-0.994790,0.009327,-0.133254,-0.226829,14.733807,18.782475,-52.165943,,,,,,,
1508184041.071291,-0.035693,0.077623,-3.020240,-1.049768,-0.122220,-0.066633,-0.035578,-0.077545,-0.996354,0.093318,-0.155045,-0.237228,14.648987,19.188784,-52.041809,,,,,,,
1508184041.091300,-0.037925,0.053284,-3.022436,-1.290512,-0.129615,-0.067412,-0.037862,-0.053259,-0.997863,0.139211,-0.115503,-0.285508,14.416060,20.800932,-51.484467,,,,,,,
1508184041.111269,-0.042634,0.027125,-3.023641,-1.299109,-0.331212,0.067740,-0.042605,-0.027122,-0.998724,0.144793,-0.120766,-0.290888,14.291802,21.804539,-51.102432,,,,,,,
1508184041.131275,-0.051489,0.001418,-3.020457,-1.231627,-0.473347,0.289408,-0.051466,-0.001418,-0.998674,0.140165,-0.021973,-0.343398,13.835188,23.739418,-50.360497,,,,,,,
1508184041.151275,-0.061082,-0.019830,-3.016191,-0.911882,-0.492442,0.209473,-0.061032,0.019829,-0.997939,0.087689,0.059319,-0.445909,13.499071,24.791691,-49.942959,,,,,,,
1508184041.171288,-0.068722,-0.033524,-3.015383,-0.587744,-0.283403,0.041988,-0.068629,0.033517,-0.997079,0.059580,0.011450,-0.420417,13.301472,25.194590,-49.794136,,,,,,,
1508184041.191269,-0.071157,-0.044197,-3.015366,-0.518914,-0.035226,0.044735,-0.071027,0.044182,-0.996495,0.063779,-0.057549,-0.341594,12.966136,26.051577,-49.440334,,,,,,,
1508184041.211303,-0.069437,-0.053892,-3.015233,-0.453157,0.140562,0.024009,-0.069280,0.053866,-0.996142,0.077016,-0.010150,-0.346921,13.031422,26.532253,-49.166794,,,,,,,
1508184041.231283,-0.063775,-0.060211,-3.015543,-0.191672,0.358891,0.013182,-0.063616,0.060174,-0.996159,0.071536,0.018927,-0.325191,13.117177,26.744175,-49.028980,,,,,,,
1508184041.251316,-0.057505,-0.058540,-3.015348,0.245133,0.248063,-0.019660,-0.057375,0.058506,-0.996637,0.149020,0.062191,-0.300055,13.600462,26.925583,-48.797462,,,,,,,
1508184041.271323,-0.054875,-0.050229,-3.016135,0.456289,0.084045,-0.060092,-0.054779,0.050208,-0.997235,0.123184,-0.038520,-0.180819,13.743124,26.588213,-48.942265,,,,,,,
1508184041.291331,-0.053688,-0.042627,-3.014949,0.326284,0.067794,0.092723,-0.053613,0.042614,-0.997652,0.087076,-0.070599,-0.137770,13.767218,26.374718,-49.050892,,,,,,,
1508184041.311336,-0.051977,-0.037392,-3.013046,0.245879,0.071097,0.049017,-0.051917,0.037384,-0.997951,0.022468,-0.020874,-0.046696,13.930310,25.873327,-49.271385,,,,,,,
1508184041.331329,-0.050297,-0.032786,-3.012744,0.214583,0.110609,0.003682,-0.050248,0.032780,-0.998199,-0.013304,-0.030308,-0.003556,14.010464,25.633852,-49.373726,,,,,,,
1508184041.351351,-0.048256,-0.027781,-3.011316,0.294151,0.067822,0.083150,-0.048219,0.027778,-0.998450,-0.026488,-0.022117,-0.010293,14.071263,25.525461,-49.412575,,,,,,,
1508184041.371358,-0.054696,-0.019343,-3.009796,0.381104,-0.066361,0.045577,-0.054658,0.019341,-0.998318,-0.050872,0.005271,-0.008015,13.883563,24.973917,-49.746376,,,,,,,
1508184041.391357,-0.055343,-0.012135,-3.008986,0.332709,-0.013010,0.019250,-0.055311,0.012134,-0.998395,-0.094866,-0.008427,0.013364,13.853318,24.683611,-49.899467,,,,,,,
1508184041.411371,-0.056331,-0.007059,-3.008177,0.218441,-0.083300,0.025686,-0.056300,0.007059,-0.998389,-0.082799,-0.015482,0.011344,13.847081,24.432205,-50.024769,,,,,,,
1508184041.431369,-0.072941,-0.002095,-3.008687,0.186428,-0.240746,-0.091431,-0.072876,0.002095,-0.997339,-0.098679,0.003947,-0.002982,13.029329,24.050400,-50.427837,,,,,,,
1508184041.451385,-0.077056,0.001813,-3.011928,0.200804,-0.167010,-0.210871,-0.076980,-0.001813,-0.997031,-0.128861,0.013791,-0.025659,12.732725,23.907200,-50.571491,,,,,,,
1508184041.471391,-0.079929,0.006906,-3.016552,0.249734,-0.132816,-0.270050,-0.079842,-0.006906,-0.996784,-0.119636,0.009760,-0.029172,12.531798,23.784794,-50.679279,,,,,,,
1508184041.491397,-0.083156,0.013296,-3.022230,0.323445,-0.182734,-0.353619,-0.083053,-0.013296,-0.996456,-0.121186,0.034505,-0.030185,12.174922,23.529860,-50.884857,,,,,,,
1508184041.511405,-0.085871,0.020512,-3.030637,0.313118,-0.098303,-0.491323,-0.085747,-0.020511,-0.996106,-0.107460,0.030109,0.001111,11.902914,23.350964,-51.031414,,,,,,,
1508184041.531412,-0.086107,0.027262,-3.040551,0.296674,-0.024689,-0.545693,-0.085969,-0.027259,-0.995925,-0.086761,0.032935,0.009734,11.659016,23.198071,-51.157295,,,,,,,
1508184041.551417,-0.088082,0.034977,-3.052889,0.341485,-0.162848,-0.712198,-0.087915,-0.034970,-0.995514,-0.037574,0.037793,-0.011017,11.169588,22.920336,-51.391151,,,,,,,
1508184041.571426,-0.091160,0.043129,-3.067176,0.336095,-0.183025,-0.742825,-0.090949,-0.043116,-0.994922,-0.043344,0.018336,0.007968,10.649933,22.728088,-51.586479,,,,,,,
1508184041.591407,-0.095733,0.050413,-3.080973,0.303147,-0.226752,-0.713375,-0.095466,-0.050391,-0.994156,-0.017068,0.012504,-0.003082,10.386286,22.636547,-51.680405,,,,,,,
1508184041.611436,-0.100890,0.056917,-3.094342,0.238254,-0.337553,-0.696791,-0.100556,-0.056887,-0.993304,0.013153,0.013765,0.039675,9.471165,22.414343,-51.952347,,,,,,,
1508184041.631445,-0.107437,0.062142,-3.108602,0.172948,-0.398125,-0.761975,-0.107023,-0.062102,-0.992315,0.014128,0.020690,0.022894,8.780563,22.335150,-52.107533,,,,,,,
1508184041.651453,-0.113126,0.066793,-3.124837,0.163660,-0.287092,-0.885136,-0.112633,-0.066743,-0.991393,0.014320,0.054857,0.030577,8.402397,22.312710,-52.179451,,,,,,,
1508184041.671460,-0.116298,0.071856,3.139839,0.111817,-0.210227,-0.962986,-0.115737,-0.071794,-0.990682,0.095839,0.039399,-0.007823,7.376563,22.296003,-52.341438,,,,,,,
1508184041.691466,-0.120777,0.075367,3.121596,0.036487,-0.350959,-0.892645,-0.120141,-0.075295,-0.989897,0.159784,0.026208,-0.019243,6.871510,22.323147,-52.398582,,,,,,,
1508184041.711473,-0.128076,0.077791,3.104314,0.018737,-0.484139,-0.877905,-0.127340,-0.077712,-0.988810,0.174383,0.049316,-0.001501,6.299138,22.382004,-52.445385,,,,,,,
1508184041.731479,-0.135706,0.080765,3.086024,0.035468,-0.409472,-0.930182,-0.134848,-0.080677,-0.987576,0.222129,0.086445,0.042798,4.974714,22.504253,-52.535347,,,,,,,
1508184041.751486,-0.143152,0.085146,3.068291,0.124623,-0.487324,-0.896065,-0.142147,-0.085043,-0.986185,0.270794,0.092108,0.042994,4.114977,22.511765,-52.606457,,,,,,,
1508184041.771479,-0.152517,0.090882,3.051163,0.149471,-0.553400,-0.883396,-0.151299,-0.090757,-0.984313,0.310418,0.081815,0.076781,3.404957,22.446383,-52.685085,,,,,,,
1508184041.791500,-0.161442,0.094767,3.033240,-0.024161,-0.505335,-0.926615,-0.160020,-0.094625,-0.982568,0.369447,0.073889,0.119897,2.185811,22.363802,-52.784794,,,,,,,
1508184041.811493,-0.169135,0.093881,3.014679,-0.294869,-0.453176,-0.873853,-0.167589,-0.093744,-0.981390,0.552553,0.053598,0.050253,1.262011,22.530485,-52.744068,,,,,,,
1508184041.831514,-0.177389,0.089167,2.998315,-0.401038,-0.513209,-0.670306,-0.175759,-0.089049,-0.980397,0.589836,0.036726,0.001760,0.610300,22.804966,-52.637562,,,,,,,
1508184041.851519,-0.187420,0.083036,2.987025,-0.387217,-0.551031,-0.402126,-0.185683,-0.082941,-0.979103,0.629485,0.062586,-0.055336,-0.026757,23.122700,-52.502304,,,,,,,
1508184041.871521,-0.196220,0.077580,2.980227,-0.305703,-0.417192,-0.221790,-0.194377,-0.077502,-0.977860,0.642985,0.081210,-0.078353,-0.964808,23.617825,-52.272549,,,,,,,
1508184041.891535,-0.203130,0.072487,2.975814,-0.288595,-0.316176,-0.133699,-0.201206,-0.072423,-0.976868,0.666126,0.075978,-0.085281,-1.374322,23.854553,-52.155762,,,,,,,
1508184041.911539,-0.207000,0.067649,2.973429,-0.241649,-0.140659,-0.015787,-0.205054,-0.067598,-0.976413,0.685706,0.070085,-0.110348,-1.786727,24.150444,-52.006882,,,,,,,
1508184041.931549,-0.208262,0.063526,2.974410,-0.154832,0.013410,0.168516,-0.206342,-0.063483,-0.976418,0.652662,0.067008,-0.101615,-1.988473,24.460314,-51.854519,,,,,,,
1508184041.951547,-0.205918,0.061080,2.980536,0.008088,0.180141,0.403761,-0.204084,-0.061042,-0.977048,0.650404,0.064567,-0.100985,-1.988473,24.460314,-51.854519,,,,,,,
1508184041.971559,-0.202192,0.061384,2.989599,0.147122,0.246076,0.441087,-0.200439,-0.061346,-0.977784,0.545608,0.066717,-0.057006,-1.342172,24.558519,-51.828850,,,,,,,
1508184041.991546,-0.196729,0.063196,2.999330,0.189744,0.342936,0.473772,-0.195072,-0.063154,-0.978754,0.451572,0.056867,0.000696,-0.832303,24.387405,-51.920265,,,,,,,
1508184042.011557,-0.187875,0.063639,3.010038,0.070566,0.565442,0.552740,-0.186394,-0.063596,-0.980415,0.409783,0.040556,0.031654,-0.525516,24.296555,-51.966846,,,,,,,
1508184042.031582,-0.176434,0.061138,3.022366,-0.040398,0.591854,0.676131,-0.175192,-0.061099,-0.982637,0.355154,0.011508,0.020051,0.765673,24.212225,-52.003212,,,,,,,
1508184042.051574,-0.168822,0.058074,3.036558,-0.006253,0.319042,0.728045,-0.167738,-0.058041,-0.984122,0.290358,0.040707,0.011832,1.620851,24.234501,-51.973202,,,,,,,
1508184042.071595,-0.162389,0.056196,3.051018,0.048075,0.417003,0.741512,-0.161421,-0.056166,-0.985286,0.221160,0.051314,0.025661,1.959683,24.220331,-51.968136,,,,,,,
1508184042.091601,-0.154135,0.055577,3.065149,0.079682,0.476844,0.643587,-0.153288,-0.055548,-0.986619,0.118910,0.048987,0.034730,3.128172,24.077377,-51.977364,,,,,,,
1508184042.111602,-0.144118,0.054795,3.076454,0.011752,0.544166,0.545628,-0.143404,-0.054768,-0.988148,0.103014,0.017734,0.031834,3.738750,23.992287,-51.976379,,,,,,,
1508184042.131616,-0.135030,0.051734,3.087780,-0.119365,0.438625,0.603771,-0.134440,-0.051711,-0.989572,0.092127,0.003401,0.026376,4.357688,23.951084,-51.947166,,,,,,,
1508184042.151622,-0.128705,0.046952,3.099225,-0.177851,0.287425,0.579350,-0.128209,-0.046935,-0.990636,0.069584,0.027968,0.030446,5.435436,24.054724,-51.797474,,,,,,,
1508184042.171622,-0.124751,0.042822,3.109176,-0.095573,0.207729,0.470615,-0.124313,-0.042809,-0.991319,0.009323,0.043419,0.007448,5.947207,24.160765,-51.691780,,,,,,,
1508184042.191636,-0.117599,0.041091,3.116983,-0.014288,0.480596,0.377028,-0.117229,-0.041080,-0.992255,-0.045124,0.031787,0.033499,6.312858,24.174795,-51.641834,,,,,,,
1508184042.211642,-0.106181,0.039405,3.124475,-0.090723,0.632950,0.373809,-0.105900,-0.039395,-0.993596,0.031223,0.021420,0.036244,7.216399,24.140871,-51.539249,,,,,,,
1508184042.231624,-0.095116,0.034928,3.130792,-0.236036,0.481865,0.302535,-0.094915,-0.034921,-0.994873,0.109273,0.047586,0.016769,7.828428,24.204821,-51.419788,,,,,,,
1508184042.251645,-0.088545,0.029349,3.135521,-0.249370,0.239082,0.259148,-0.088391,-0.029345,-0.995653,0.114697,0.067492,0.025057,8.310328,24.347519,-51.276588,,,,,,,
1508184042.271662,-0.087179,0.025437,3.140853,-0.133026,0.014219,0.294311,-0.087041,-0.025434,-0.995880,0.038182,0.033735,0.026382,8.714030,24.557922,-51.108963,,,,,,,
1508184042.291672,-0.087333,0.021791,-3.136263,-0.196065,0.018429,0.327353,-0.087201,-0.021789,-0.995952,0.002805,-0.010422,0.062710,8.929654,24.679041,-51.013313,,,,,,,
1508184042.311677,-0.084402,0.014510,-3.130969,-0.423867,0.260439,0.254704,-0.084293,-0.014510,-0.996335,0.002674,-0.002534,0.054975,9.067520,24.788919,-50.935661,,,,,,,
1508184042.331658,-0.077737,0.004658,-3.129085,-0.494281,0.338607,0.060623,-0.077658,-0.004658,-0.996969,0.099890,0.078709,0.021872,9.626609,25.374092,-50.543404,,,,,,,
1508184042.351684,-0.072852,-0.004119,-3.128984,-0.376047,0.164935,0.065186,-0.072787,0.004119,-0.997339,0.146090,0.065873,-0.022040,9.935396,25.837421,-50.248062,,,,,,,
1508184042.371696,-0.073079,-0.009618,-3.125330,-0.197951,-0.102942,0.294993,-0.073010,0.009618,-0.997285,0.127576,0.041881,-0.039107,10.022072,26.005001,-50.144295,,,,,,,
1508184042.391704,-0.075854,-0.012852,-3.117700,-0.112948,-0.126619,0.417899,-0.075775,0.012851,-0.997042,0.033997,0.016919,0.014513,10.117168,26.196117,-50.025578,,,,,,,
1508184042.411682,-0.076762,-0.015883,-3.109889,-0.143346,-0.016823,0.383274,-0.076677,0.015882,-0.996929,0.010592,-0.000929,0.032742,10.253448,26.226463,-49.981915,,,,,,,
1508184042.431717,-0.077444,-0.021353,-3.103498,-0.330700,-0.056061,0.318939,-0.077349,0.021352,-0.996775,0.030672,-0.017400,0.031779,10.342121,26.267530,-49.942062,,,,,,,
1508184042.451724,-0.080854,-0.031022,-3.097645,-0.527920,-0.279760,0.343657,-0.080727,0.031017,-0.996254,0.014306,-0.083019,0.018058,10.460276,26.694115,-49.690636,,,,,,,
1508184042.471710,-0.089465,-0.044213,-3.092009,-0.698551,-0.513999,0.308795,-0.089259,0.044199,-0.995027,-0.036367,-0.088709,0.043749,10.267245,27.208014,-49.451591,,,,,,,
1508184042.491738,-0.099600,-0.061153,-3.089644,-0.925091,-0.469881,0.115325,-0.099250,0.061115,-0.993184,-0.093301,-0.054263,0.016621,9.989218,27.719738,-49.223816,,,,,,,
1508184042.511744,-0.104066,-0.081761,-3.091580,-1.057431,-0.010464,-0.019194,-0.103532,0.081670,-0.991267,-0.101272,-0.003316,-0.039632,9.586529,28.893892,-48.625027,,,,,,,
1508184042.531741,-0.102176,-0.099771,-3.093618,-0.776306,0.101298,-0.010363,-0.101491,0.099606,-0.989838,-0.040065,0.066822,-0.162903,9.627143,29.629868,-48.171993,,,,,,,
1508184042.551759,-0.101425,-0.110294,-3.094748,-0.375681,-0.018152,0.011328,-0.100636,0.110071,-0.988816,0.019215,0.074622,-0.190109,9.696413,30.190023,-47.808933,,,,,,,
1508184042.571749,-0.103725,-0.113478,-3.094335,-0.042369,-0.152533,0.050348,-0.102874,0.113235,-0.988228,0.033644,0.070191,-0.189583,9.655779,30.666321,-47.513100,,,,,,,
1508184042.591766,-0.106239,-0.112949,-3.093629,0.023655,-0.087491,0.010968,-0.105363,0.112709,-0.988026,0.029787,0.008858,-0.147960,9.568185,30.656925,-47.536877,,,,,,,
1508184042.611779,-0.105671,-0.114401,-3.094103,-0.133207,0.091572,-0.021368,-0.104785,0.114152,-0.987922,0.047823,-0.021882,-0.140115,9.513655,30.642618,-47.557041,,,,,,,
1508184042.631785,-0.102962,-0.117441,-3.094162,-0.131046,0.161736,0.049055,-0.102072,0.117171,-0.987852,0.087332,-0.028411,-0.247835,9.567547,30.750515,-47.476521,,,,,,,
1508184042.651782,-0.100405,-0.117397,-3.092355,0.104783,0.057218,0.082383,-0.099547,0.117127,-0.988115,0.111464,0.022765,-0.363096,9.780050,30.870588,-47.355145,,,,,,,
1508184042.671799,-0.099809,-0.113008,-3.092250,0.265865,0.051103,-0.076528,-0.099007,0.112768,-0.988676,0.145150,0.012003,-0.435075,9.863998,30.736668,-47.424789,,,,,,,
1508184042.691806,-0.097830,-0.107415,-3.093439,0.269899,0.144824,-0.067227,-0.097111,0.107208,-0.989483,0.167301,-0.064926,-0.517491,9.863831,30.622133,-47.498863,,,,,,,
1508184042.711792,-0.092322,-0.100869,-3.093163,0.393690,0.338520,0.005578,-0.091723,0.100698,-0.990680,0.157992,-0.019049,-0.545880,10.009251,30.247051,-47.708305,,,,,,,
1508184042.731794,-0.085114,-0.089420,-3.091765,0.717995,0.330949,0.022506,-0.084672,0.089301,-0.992399,0.156724,0.003457,-0.542482,10.250760,29.963154,-47.836006,,,,,,,
1508184042.751803,-0.081331,-0.071633,-3.090098,0.956263,0.061435,-0.002555,-0.081033,0.071572,-0.994138,0.209192,-0.065041,-0.489260,10.679410,28.882088,-48.403793,,,,,,,
1508184042.771833,-0.084410,-0.054066,-3.089264,0.785775,-0.240942,-0.055622,-0.084187,0.054040,-0.994984,0.210880,-0.133569,-0.448727,10.590304,27.988914,-48.945053,,,,,,,
1508184042.791841,-0.085101,-0.041903,-3.089141,0.527067,0.079681,-0.017425,-0.084924,0.041891,-0.995506,0.149117,-0.126196,-0.381492,10.470091,27.630608,-49.173962,,,,,,,
1508184042.811846,-0.080584,-0.032058,-3.086890,0.530095,0.306275,0.132834,-0.080455,0.032052,-0.996243,0.125927,-0.067346,-0.468555,10.628454,26.839924,-49.576271,,,,,,,
1508184042.831848,-0.076171,-0.018938,-3.082190,0.787608,0.126083,0.184303,-0.076083,0.018937,-0.996922,0.183154,0.017944,-0.512249,10.976824,26.198717,-49.842636,,,,,,,
1508184042.851861,-0.078444,0.001213,-3.078325,1.129682,-0.256171,0.059502,-0.078364,-0.001213,-0.996924,0.191569,0.069420,-0.512628,11.062501,25.760393,-50.051727,,,,,,,
1508184042.871867,-0.085867,0.024599,-3.076631,1.140471,-0.384888,-0.030342,-0.085736,-0.024596,-0.996014,0.184354,0.029418,-0.344318,10.695211,24.043755,-50.977077,,,,,,,
1508184042.891874,-0.093068,0.044865,-3.074712,0.957613,-0.355145,0.034408,-0.092840,-0.044850,-0.994670,0.174505,0.034565,-0.281895,10.316626,22.955591,-51.553467,,,,,,,
1508184042.911881,-0.098049,0.062466,-3.069664,0.889323,-0.160664,0.271557,-0.097701,-0.062426,-0.993256,0.106139,0.086306,-0.173126,10.099041,22.225214,-51.915325,,,,,,,
1508184042.931888,-0.098796,0.080405,-3.058662,1.046510,0.193444,0.559537,-0.098317,-0.080318,-0.991909,0.104054,0.164852,-0.089817,10.145697,20.957916,-52.430740,,,,,,,
1508184042.951873,-0.093561,0.108679,-3.043523,1.783672,0.261378,0.587855,-0.092873,-0.108465,-0.989752,0.151436,0.399999,-0.146783,10.724189,19.467117,-52.888329,,,,,,,
1508184042.971901,-0.095843,0.155145,-3.030813,2.716184,-0.209134,0.310343,-0.094547,-0.154523,-0.983455,0.186008,0.406415,-0.079625,10.984559,17.772785,-53.428642,,,,,,,
1508184042.991909,-0.107186,0.215888,-3.018989,3.197602,-0.574556,0.273695,-0.104497,-0.214215,-0.971181,0.159490,0.322949,0.106832,10.896299,15.535316,-54.139416,,,,,,,
1508184043.011891,-0.124110,0.278716,-3.006339,3.164520,-0.671363,0.213278,-0.119015,-0.275121,-0.954015,0.135357,0.340185,0.274647,10.195285,11.130254,-55.347317,,,,,,,
1508184043.031922,-0.136075,0.339851,-2.994897,3.047420,-0.254641,0.119886,-0.127896,-0.333347,-0.934089,0.121076,0.358341,0.367332,9.676501,8.456847,-55.910637,,,,,,,
1508184043.051928,-0.140179,0.398415,-2.982156,2.944842,0.182967,0.234109,-0.128777,-0.387958,-0.912636,0.103447,0.330081,0.611123,9.343340,4.983992,-56.382744,,,,,,,
1508184043.071935,-0.141216,0.453929,-2.967064,2.755464,0.258494,0.309929,-0.126494,-0.438500,-0.889785,0.166167,0.342140,0.720077,9.573603,0.774981,-56.558800,,,,,,,
1508184043.091941,-0.145682,0.503465,-2.951941,2.399842,0.011463,0.303115,-0.127155,-0.482463,-0.866638,0.206577,0.372326,0.782028,9.828272,-2.356869,-56.471252,,,,,,,
1508184043.111948,-0.155848,0.544402,-2.938416,1.916827,-0.261022,0.256247,-0.132779,-0.517906,-0.845070,0.243436,0.320656,0.957908,9.823235,-4.432301,-56.347233,,,,,,,
1508184043.131956,-0.168354,0.573002,-2.926113,1.206643,-0.306773,0.318223,-0.140797,-0.542157,-0.828397,0.167744,0.248731,1.008344,9.446549,-7.171892,-56.129128,,,,,,,
1508184043.151963,-0.179872,0.585104,-2.914471,0.397481,-0.145891,0.403933,-0.149144,-0.552286,-0.820205,0.114323,0.230478,0.953781,9.047787,-8.458466,-56.015572,,,,,,,
1508184043.171968,-0.181722,0.583603,-2.904657,-0.231031,0.340025,0.397358,-0.150811,-0.551034,-0.820742,0.068841,0.252923,0.946215,8.902763,-8.764883,-55.991692,,,,,,,
1508184043.191976,-0.175878,0.572472,-2.900308,-0.647184,0.459815,0.207197,-0.147076,-0.541711,-0.827597,0.074688,0.304376,0.728309,9.321341,-8.485308,-55.966637,,,,,,,
1508184043.211981,-0.165741,0.556800,-2.900714,-0.825368,0.485720,0.059806,-0.140063,-0.528473,-0.837317,0.108462,0.238159,0.605597,9.707336,-7.916201,-55.984406,,,,,,,
1508184043.231967,-0.155423,0.539348,-2.904482,-0.935687,0.392241,-0.057115,-0.132823,-0.513577,-0.847701,0.096355,0.148327,0.498199,10.337256,-6.735931,-56.026066,,,,,,,
1508184043.251997,-0.143530,0.519068,-2.911174,-1.123577,0.462853,-0.187021,-0.124197,-0.496072,-0.859353,0.066290,0.091057,0.378442,10.807245,-5.594887,-56.062935,,,,,,,
1508184043.272004,-0.126507,0.494988,-2.920602,-1.301207,0.737886,-0.266583,-0.111026,-0.475021,-0.872942,0.047580,0.064193,0.334765,11.091580,-4.926477,-56.070122,,,,,,,
1508184043.292010,-0.104783,0.469812,-2.930966,-1.297505,0.850950,-0.341801,-0.093259,-0.452719,-0.886763,0.107190,0.093481,0.145353,12.385624,-2.663733,-55.952240,,,,,,,
1508184043.312017,-0.086410,0.444421,-2.941387,-1.318007,0.566502,-0.323798,-0.077919,-0.429936,-0.899491,0.208473,0.040531,0.054627,13.247877,-1.117657,-55.806778,,,,,,,
1508184043.332024,-0.076999,0.418592,-2.949471,-1.308933,0.143396,-0.220636,-0.070281,-0.406474,-0.910955,0.219772,0.009456,0.023412,13.537444,-0.339270,-55.747417,,,,,,,
1508184043.352031,-0.073935,0.393913,-2.955714,-1.180014,0.006947,-0.186765,-0.068210,-0.383805,-0.920892,0.115177,0.071930,0.043466,13.759516,1.908888,-55.661335,,,,,,,
1508184043.372036,-0.070519,0.373107,-2.961927,-1.012361,0.075170,-0.231598,-0.065613,-0.364510,-0.928885,0.075638,0.048226,0.016455,13.802044,3.196157,-55.591728,,,,,,,
1508184043.392026,-0.065719,0.351972,-2.969125,-1.141106,0.151991,-0.265668,-0.061646,-0.344750,-0.936668,0.163376,-0.003791,-0.006996,13.857577,4.105883,-55.518116,,,,,,,
1508184043.412051,-0.059665,0.326738,-2.975600,-1.340944,0.152944,-0.183427,-0.056475,-0.320955,-0.945409,0.180498,0.019640,-0.036143,14.076262,5.857533,-55.305519,,,,,,,
1508184043.432058,-0.055293,0.300219,-2.980283,-1.292496,0.115535,-0.126407,-0.052793,-0.295730,-0.953812,0.178815,0.158675,-0.056106,14.226924,7.391804,-55.082737,,,,,,,
1508184043.452065,-0.051965,0.277281,-2.984360,-0.991652,0.057946,-0.130062,-0.049957,-0.273741,-0.960505,0.183090,0.135863,-0.053243,14.286233,8.436572,-54.917027,,,,,,,
1508184043.472071,-0.051251,0.259928,-2.988086,-0.822294,-0.046477,-0.136139,-0.049508,-0.257011,-0.965140,0.205864,0.067558,-0.104929,14.351501,9.328855,-54.755447,,,,,,,
1508184043.492065,-0.049202,0.243659,-2.991207,-0.786825,-0.008300,-0.052482,-0.047729,-0.241255,-0.969287,0.205261,0.043089,-0.072201,14.284781,10.513125,-54.557961,,,,,,,
1508184043.512086,-0.049666,0.227271,-2.991895,-0.834579,-0.044686,0.037651,-0.048369,-0.225319,-0.973084,0.207258,0.034615,-0.064300,14.349251,11.207200,-54.402664,,,,,,,
1508184043.532092,-0.050863,0.211756,-2.991164,-0.688752,-0.083185,0.094614,-0.049705,-0.210177,-0.976399,0.147529,0.020892,-0.104534,14.314552,12.098702,-54.220539,,,,,,,
1508184043.552098,-0.055138,0.200717,-2.989577,-0.491321,-0.248378,0.110724,-0.054004,-0.199372,-0.978435,0.110965,-0.021209,-0.125173,14.213967,12.998013,-54.038570,,,,,,,
1508184043.572104,-0.059045,0.190848,-2.987620,-0.473489,-0.103553,0.132069,-0.057939,-0.189692,-0.980133,0.080034,-0.048651,-0.105622,13.994011,13.504267,-53.971794,,,,,,,
1508184043.592084,-0.053056,0.180995,-2.987570,-0.489335,0.095835,0.047083,-0.052165,-0.180009,-0.982281,0.056636,0.001786,-0.063480,18.439739,16.716522,-46.748909,,,,,,,
1508184043.612119,-0.049238,0.170425,-2.988743,-0.584218,0.188807,-0.089615,-0.048505,-0.169602,-0.984318,0.107649,0.022324,-0.129940,18.547970,17.057823,-46.582504,,,,,,,
1508184043.632124,-0.044266,0.158144,-2.992318,-0.599447,0.221926,-0.135934,-0.043700,-0.157485,-0.986554,0.152556,0.003021,-0.143878,18.659430,17.488525,-46.377834,,,,,,,
1508184043.652133,-0.042683,0.149335,-2.992990,-0.344455,-0.026740,0.065813,-0.042195,-0.148780,-0.987970,0.150517,0.000968,-0.116187,18.838167,18.302025,-45.990063,,,,,,,
