timestamp(unix),attitude_roll(radians),attitude_pitch(radians),attitude_yaw(radians),rotation_rate_x(radians/s),rotation_rate_y(radians/s),rotation_rate_z(radians/s),gravity_x(G),gravity_y(G),gravity_z(G),user_acc_x(G),user_acc_y(G),user_acc_z(G),magnetic_field_x(microteslas),magnetic_field_y(microteslas),magnetic_field_z(microteslas),latitude(degree),longitude(degree),altitude(meter),speed(m/s),course(degree),timestamp(unix),User Mark
1505914730.340787,0.010307,0.539229,-0.617165,0.011578,-0.017579,0.032758,0.008844,-0.513474,-0.858059,0.007376,-0.006911,0.030346,-5.672282,-17.096363,-28.535919,,,,,,,
1505914730.360755,0.009584,0.538763,-0.616289,-0.039753,-0.010275,0.039992,0.008226,-0.513075,-0.858305,0.007399,0.001386,0.022688,-5.682727,-17.100395,-28.531422,,,,,,,
,,,,,,,,,,,,,,,,42.293704,-71.264098,61.448730,-1.000000,-1.000000,1505914730.303212,
,,,,,,,,,,,,,,,,42.293699,-71.264000,61.448730,-1.000000,-1.000000,1505914710.613424,
1505914730.380721,0.009123,0.537856,-0.615364,-0.034440,0.001435,0.039023,0.007835,-0.512296,-0.858773,0.002739,0.006986,0.000542,-5.712435,-17.068409,-28.544640,,,,,,,
1505914730.400691,0.008801,0.537240,-0.614624,-0.026817,0.001506,0.027289,0.007561,-0.511767,-0.859091,0.001854,0.004107,-0.003763,-5.719095,-17.046413,-28.556448,,,,,,,
1505914730.420659,0.008422,0.536844,-0.614167,-0.017029,-0.013308,0.016548,0.007238,-0.511426,-0.859297,0.004329,-0.000216,-0.022371,-5.732895,-17.019953,-28.569462,,,,,,,
1505914730.440613,0.007992,0.536285,-0.613991,-0.019030,-0.024971,0.008969,0.006870,-0.510946,-0.859585,0.003628,0.005667,-0.007694,-5.744188,-17.011665,-28.572126,,,,,,,
1505914730.460594,0.007443,0.535832,-0.613841,-0.021138,-0.019645,0.005775,0.006400,-0.510557,-0.859820,0.002404,0.008344,0.002337,-5.752812,-16.997116,-28.579052,,,,,,,
1505914730.480562,0.007191,0.534928,-0.613770,0.010844,-0.017460,0.007050,0.006186,-0.509779,-0.860283,0.001825,0.013609,-0.008034,-5.769547,-16.970524,-28.591478,,,,,,,
1505914730.500502,0.006935,0.535244,-0.613638,0.032137,-0.007854,0.008306,0.005965,-0.510051,-0.860124,0.002580,0.002162,-0.003631,-5.777036,-16.967741,-28.591618,,,,,,,
1505914730.520497,0.006829,0.535513,-0.613367,-0.000016,-0.001584,0.017790,0.005873,-0.510282,-0.859987,0.004915,0.002164,-0.000715,-5.780540,-16.972441,-28.588120,,,,,,,
1505914730.540466,0.006914,0.534977,-0.613014,-0.016125,0.000476,0.025202,0.005948,-0.509822,-0.860260,0.005191,0.009761,-0.005097,-5.781414,-16.968685,-28.590174,,,,,,,
1505914730.560408,0.006894,0.534405,-0.612467,-0.012983,0.010041,0.027420,0.005933,-0.509329,-0.860552,0.006198,0.009832,-0.009703,-5.781798,-16.951157,-28.600492,,,,,,,
1505914730.580401,0.006865,0.534067,-0.611906,0.034988,-0.001583,0.032991,0.005909,-0.509038,-0.860724,0.008846,0.009359,-0.027796,-5.780243,-16.936529,-28.609468,,,,,,,
1505914730.600369,0.006637,0.534543,-0.611361,0.099130,-0.008856,0.024762,0.005711,-0.509448,-0.860483,0.002956,0.011340,-0.018698,-5.785966,-16.936989,-28.608040,,,,,,,
1505914730.620314,0.006196,0.536727,-0.610955,0.148309,-0.020427,0.019631,0.005325,-0.511326,-0.859370,0.003632,0.011509,-0.015004,-5.795223,-16.976627,-28.582661,,,,,,,
1505914730.640305,0.006127,0.539316,-0.610940,0.223072,-0.011731,0.011562,0.005257,-0.513550,-0.858044,0.001502,0.003097,-0.032169,-5.798435,-17.023758,-28.553963,,,,,,,
1505914730.660272,0.006376,0.543866,-0.610957,0.368222,-0.005032,0.006043,0.005456,-0.517448,-0.855697,0.007758,0.011390,-0.065857,-5.799777,-17.174959,-28.462999,,,,,,,
1505914730.680220,0.006308,0.552284,-0.611400,0.548828,-0.056708,-0.004971,0.005370,-0.524633,-0.851312,0.012834,-0.007624,-0.064887,-5.792297,-17.302021,-28.387466,,,,,,,
1505914730.700209,0.005390,0.564606,-0.611245,0.672149,-0.034266,0.023746,0.004553,-0.535083,-0.844787,0.008706,0.016880,-0.075287,-5.809888,-17.604429,-28.197309,,,,,,,
1505914730.720150,0.004976,0.581444,-0.611536,0.981264,-0.038688,-0.033336,0.004158,-0.549231,-0.835660,0.002556,0.033728,-0.152392,-5.836241,-18.121372,-27.862394,,,,,,,
1505914730.740125,0.005021,0.607562,-0.613672,1.532954,-0.061641,-0.114782,0.004123,-0.570868,-0.821032,0.023328,0.096808,-0.135618,-5.842144,-18.774725,-27.425135,,,,,,,
1505914730.760112,0.012964,0.645934,-0.623516,2.093122,0.110243,-0.477740,0.010352,-0.601944,-0.798471,-0.025428,0.174408,-0.135596,-5.810549,-19.227928,-27.116108,,,,,,,
1505914730.780053,0.026387,0.692063,-0.637774,2.463924,0.305961,-0.564304,0.020314,-0.638127,-0.769663,-0.012440,0.139424,-0.127385,-5.399270,-20.998768,-25.858435,,,,,,,
1505914730.800049,0.042738,0.746596,-0.657855,2.959457,0.017326,-0.696965,0.031360,-0.679144,-0.733335,0.024243,0.147604,-0.211749,-5.011671,-22.393894,-24.741777,,,,,,,
1505914730.820008,0.056067,0.811094,-0.683505,3.405671,-0.333205,-0.798153,0.038593,-0.725041,-0.687623,0.024898,0.193547,-0.167479,-4.860845,-23.167265,-24.050137,,,,,,,
1505914730.839962,0.075713,0.877669,-0.715138,3.332849,-0.072700,-0.835573,0.048330,-0.769251,-0.637116,-0.012747,0.147471,0.137711,-4.457247,-25.583303,-21.549631,,,,,,,
1505914730.859952,0.101741,0.938799,-0.749885,3.006434,-0.114159,-0.751025,0.060001,-0.806849,-0.587702,0.106839,0.016948,0.109919,-4.053170,-26.986414,-19.851055,,,,,,,
1505914730.879914,0.119613,0.991120,-0.782422,2.521371,-0.441429,-0.547060,0.065362,-0.836640,-0.543840,0.238104,-0.121032,0.163499,-3.888116,-27.589584,-19.038288,,,,,,,
1505914730.899886,0.143385,1.038798,-0.816117,2.446162,-0.230660,-0.635129,0.072484,-0.861795,-0.502051,0.001628,0.201792,0.156805,-3.605740,-29.033823,-16.816502,,,,,,,
1505914730.919855,0.177245,1.081313,-0.859414,2.169473,-0.241608,-0.687185,0.082899,-0.882576,-0.462804,0.025804,-0.043022,0.141286,-3.260520,-29.834776,-15.427705,,,,,,,
1505914730.939823,0.206061,1.117299,-0.897439,1.802820,-0.197974,-0.402094,0.089640,-0.898921,-0.428843,0.037130,-0.077688,0.167735,-3.042178,-30.328287,-14.480992,,,,,,,
1505914730.959790,0.224818,1.146947,-0.922044,1.388578,-0.115667,0.003966,0.091684,-0.911513,-0.400922,0.023245,-0.244127,0.161893,-2.863390,-30.942020,-13.158699,,,,,,,
1505914730.979759,0.226503,1.167548,-0.924151,0.775794,0.062751,0.233779,0.088124,-0.919791,-0.382385,-0.057957,-0.019815,0.072586,-2.959920,-31.232809,-12.430184,,,,,,,
1505914730.999726,0.223684,1.180019,-0.917849,0.558735,0.139816,0.254348,0.084494,-0.924613,-0.371418,-0.051612,0.030967,-0.043148,-3.086404,-31.372850,-12.040656,,,,,,,
1505914731.019694,0.218922,1.193123,-0.910955,0.619281,0.058957,0.292778,0.080086,-0.929525,-0.359958,0.009757,0.015325,0.008853,-3.225908,-31.497690,-11.672533,,,,,,,
1505914731.039663,0.209007,1.204717,-0.898787,0.357506,0.094100,0.394237,0.074272,-0.933738,-0.350167,-0.030494,0.091956,0.099954,-3.370969,-31.581547,-11.401812,,,,,,,
1505914731.059630,0.196102,1.210930,-0.878072,0.230829,0.414598,0.462883,0.068616,-0.935944,-0.345400,0.052173,0.093231,-0.049879,-3.565525,-31.638098,-11.183769,,,,,,,
1505914731.079598,0.175495,1.221814,-0.850778,0.593370,0.091332,0.632315,0.059702,-0.939721,-0.336690,0.083716,0.018899,-0.162441,-3.870234,-31.681328,-10.957814,,,,,,,
1505914731.099562,0.139035,1.237916,-0.814495,0.712035,-0.193951,0.758750,0.045286,-0.945105,-0.323614,0.040545,0.088354,-0.073756,-4.193074,-31.747000,-10.644486,,,,,,,
1505914731.119534,0.095574,1.256978,-0.772552,1.029856,-0.219961,0.774416,0.029458,-0.951162,-0.307284,0.012732,0.046606,-0.195448,-4.845478,-31.860142,-10.010581,,,,,,,
1505914731.139501,0.042475,1.285740,-0.723500,1.600021,-0.388259,0.861417,0.011941,-0.959646,-0.280958,-0.009332,0.003744,-0.208270,-5.407722,-32.016674,-9.189565,,,,,,,
1505914731.159465,-0.039683,1.323547,-0.650947,2.050233,-0.774075,1.030996,-0.009709,-0.969589,-0.244545,-0.047526,0.106690,-0.032188,-6.083010,-32.216621,-7.990338,,,,,,,
1505914731.179438,-0.171550,1.365206,-0.533282,2.262626,-0.837857,1.120772,-0.034849,-0.978941,-0.201148,-0.095491,0.043821,0.032295,-6.688786,-32.352135,-6.881743,,,,,,,
1505914731.199403,-0.345789,1.398670,-0.369263,1.728202,-0.454693,1.026713,-0.058053,-0.985223,-0.161139,-0.170524,-0.330710,0.305518,-7.686049,-32.477200,-4.991498,,,,,,,
1505914731.219370,-0.520839,1.409357,-0.195222,0.746272,0.006463,1.111442,-0.079985,-0.986997,-0.139426,-0.252718,-0.066287,0.229971,-8.403148,-32.426891,-4.079577,,,,,,,
1505914731.239316,-0.641038,1.405993,-0.069912,0.258963,0.268531,0.788817,-0.098112,-0.986451,-0.131489,-0.271502,-0.025375,0.207707,-8.403148,-32.426891,-4.079577,,,,,,,
1505914731.259299,-0.681416,1.398680,-0.020787,-0.119108,0.387289,0.467052,-0.107880,-0.985225,-0.133020,-0.097320,0.026637,0.214121,-9.280764,-32.230789,-3.715186,,,,,,,
1505914731.279242,-0.681552,1.389992,-0.007147,-0.488374,0.947380,0.350415,-0.113287,-0.983699,-0.139648,0.164633,-0.255421,-0.086853,-9.648142,-32.089794,-3.989652,,,,,,,
1505914731.299191,-0.664634,1.376901,-0.008299,-0.453803,0.658119,0.382077,-0.118841,-0.981261,-0.151669,0.009420,-0.274003,0.034527,-9.648142,-32.089794,-3.989652,,,,,,,
1505914731.319175,-0.648793,1.365751,-0.008537,-0.461193,0.918880,0.318276,-0.123027,-0.979052,-0.162241,0.003581,-0.225218,0.079614,-9.914064,-31.911787,-4.701928,,,,,,,
1505914731.339146,-0.624611,1.354819,-0.008406,-0.379641,1.354805,0.348167,-0.125320,-0.976767,-0.173840,0.023803,0.051749,-0.180256,-10.073197,-31.745544,-5.432322,,,,,,,
1505914731.359097,-0.620350,1.349270,0.006878,0.035792,0.521467,0.261019,-0.127727,-0.975563,-0.178780,0.128872,0.116081,-0.226326,-10.110651,-31.691362,-5.673728,,,,,,,
1505914731.379081,-0.638609,1.351548,0.026435,0.293443,-0.105979,-0.043238,-0.129645,-0.976061,-0.174633,-0.048181,0.329791,0.134594,-10.235691,-31.635836,-5.758782,,,,,,,
1505914731.399027,-0.633002,1.356888,0.015367,-0.008713,-0.287136,-0.310667,-0.125579,-0.977209,-0.171153,-0.052247,0.330938,0.131114,-10.235691,-31.635836,-5.758782,,,,,,,
1505914731.419008,-0.611029,1.355071,-0.009860,-0.309690,-0.016847,-0.039881,-0.122806,-0.976821,-0.175324,0.098743,0.027496,0.070542,-10.062836,-31.725103,-5.569208,,,,,,,
1505914731.438957,-0.602785,1.349593,-0.020718,-0.279392,-0.283085,0.067934,-0.124388,-0.975634,-0.180736,0.051833,-0.206724,-0.070683,-10.042481,-31.687683,-5.813626,,,,,,,
1505914731.458952,-0.599669,1.345130,-0.034743,-0.265271,-0.331543,-0.021165,-0.126281,-0.974645,-0.184716,-0.076234,-0.000636,0.129753,-10.100852,-31.658989,-5.868560,,,,,,,
1505914731.478906,-0.583450,1.340692,-0.052086,-0.323731,0.044792,-0.040664,-0.125650,-0.973643,-0.190347,0.006189,0.047663,0.060816,-10.121099,-31.638506,-5.943671,,,,,,,
1505914731.498866,-0.563769,1.337478,-0.071363,-0.396754,0.053370,-0.087103,-0.123551,-0.972905,-0.195427,0.004319,0.055302,0.012337,-10.049091,-31.613579,-6.193248,,,,,,,
1505914731.518856,-0.536871,1.331734,-0.098325,-0.396188,0.011001,-0.120555,-0.121107,-0.971560,-0.203479,0.045134,0.044513,-0.031659,-9.994473,-31.590685,-6.395175,,,,,,,
1505914731.538803,-0.518398,1.326632,-0.118491,-0.300838,-0.091217,-0.046704,-0.119782,-0.970340,-0.209984,0.074296,-0.003263,-0.052712,-9.937516,-31.570042,-6.583109,,,,,,,
1505914731.558794,-0.498810,1.322325,-0.139463,-0.216436,-0.055193,0.017197,-0.117644,-0.969290,-0.215957,0.020370,-0.011194,-0.043229,-9.836950,-31.536589,-6.887455,,,,,,,
1505914731.578759,-0.494849,1.319435,-0.145008,-0.147812,-0.080476,-0.002893,-0.118118,-0.968575,-0.218886,0.004074,-0.000526,-0.013460,-9.852401,-31.514414,-6.966415,,,,,,,
1505914731.598721,-0.492913,1.316680,-0.148999,-0.134282,-0.103984,0.028104,-0.118956,-0.967886,-0.221464,0.023253,-0.032984,-0.018603,-9.861043,-31.498709,-7.024962,,,,,,,
1505914731.618683,-0.490801,1.314520,-0.153170,-0.039143,-0.111175,0.015777,-0.119474,-0.967340,-0.223559,-0.001269,-0.020300,-0.009168,-9.893984,-31.463913,-7.133741,,,,,,,
1505914731.638663,-0.494607,1.314659,-0.151775,0.029223,-0.125907,0.012884,-0.120260,-0.967376,-0.222983,-0.007334,0.007644,0.045844,-9.919132,-31.460978,-7.111732,,,,,,,
1505914731.658617,-0.504375,1.316430,-0.144443,-0.057402,-0.099553,0.023237,-0.121604,-0.967823,-0.220298,-0.003686,0.022449,0.056251,-9.932364,-31.461403,-7.091359,,,,,,,
1505914731.678581,-0.502561,1.313881,-0.148030,-0.166266,-0.080629,0.021629,-0.122392,-0.967178,-0.222679,0.017411,0.013748,-0.017723,-9.988018,-31.454672,-7.042886,,,,,,,
1505914731.698567,-0.492779,1.309628,-0.159757,-0.161775,-0.110335,0.010763,-0.122153,-0.966089,-0.227488,0.060950,0.030924,-0.031728,-9.980547,-31.423260,-7.192115,,,,,,,
1505914731.718514,-0.494290,1.307678,-0.154685,0.100201,0.411440,0.175051,-0.123390,-0.965584,-0.228961,-0.016579,0.045708,-0.110059,-9.993004,-31.410528,-7.230323,,,,,,,
1505914731.738502,-0.503440,1.316161,-0.149018,0.056257,-0.007972,0.042664,-0.121523,-0.967755,-0.220639,-0.047483,-0.010562,-0.007846,-9.958697,-31.474239,-6.996835,,,,,,,
1505914731.758471,-0.506028,1.316505,-0.142951,0.138733,0.137051,-0.013801,-0.121933,-0.967842,-0.220034,-0.140763,0.003486,-0.118513,-9.987745,-31.464832,-6.997731,,,,,,,
1505914731.778438,-0.502592,1.318286,-0.152255,-0.059825,-0.198941,-0.093053,-0.120346,-0.968288,-0.218940,0.001693,-0.067143,0.110603,-9.949123,-31.491611,-6.931969,,,,,,,
1505914731.798393,-0.497872,1.312820,-0.159413,-0.127871,-0.056074,0.017715,-0.121837,-0.966908,-0.224153,-0.031224,0.072102,-0.074019,-9.970200,-31.457022,-7.057609,,,,,,,
1505914731.818374,-0.496730,1.311504,-0.160592,-0.015819,-0.000497,0.003726,-0.122186,-0.966572,-0.225410,-0.037482,0.034412,-0.095483,-9.983494,-31.442268,-7.104414,,,,,,,
1505914731.838342,-0.497814,1.313013,-0.159118,0.117729,0.030702,-0.016707,-0.121734,-0.966957,-0.223996,-0.015702,-0.014869,-0.063739,-9.980669,-31.443539,-7.102749,,,,,,,
1505914731.858310,-0.496677,1.312411,-0.159720,0.088365,-0.043672,-0.039821,-0.121757,-0.966804,-0.224645,0.033546,-0.021782,0.065710,-15.108475,-33.337658,-8.424198,,,,,,,
1505914731.878275,-0.496004,1.312304,-0.161182,-0.063200,0.033312,0.028280,-0.121655,-0.966777,-0.224818,0.032040,-0.016256,0.061915,-15.097101,-33.352478,-8.385826,,,,,,,
1505914731.898246,-0.496620,1.311022,-0.158712,-0.008273,0.103468,0.054734,-0.122384,-0.966448,-0.225833,-0.012550,0.017596,-0.038160,-15.113781,-33.332108,-8.436626,,,,,,,
1505914731.918214,-0.499453,1.308823,-0.153200,0.071935,0.130304,0.033961,-0.124041,-0.965881,-0.227350,0.039065,-0.003464,-0.052237,-15.179920,-33.275692,-8.539955,,,,,,,
1505914731.938174,-0.501958,1.309273,-0.151083,0.018737,-0.019433,-0.025093,-0.124401,-0.965997,-0.226658,-0.068745,0.000787,-0.020153,-15.193151,-33.274338,-8.521677,,,,,,,
1505914731.958149,-0.501118,1.309115,-0.146011,0.041185,0.360878,0.049090,-0.124283,-0.965956,-0.226896,-0.029998,-0.051561,0.039533,-15.190666,-33.278111,-8.511361,,,,,,,
1505914731.978117,-0.497666,1.308164,-0.145058,0.033108,0.093896,0.073131,-0.123938,-0.965710,-0.228131,-0.029230,0.063809,-0.080051,-15.161053,-33.251072,-8.668386,,,,,,,
1505914731.998068,-0.500239,1.309047,-0.140069,0.111290,0.167595,0.034416,-0.124115,-0.965939,-0.227063,-0.041900,0.043225,-0.029300,-15.175932,-33.244976,-8.665748,,,,,,,
1505914732.018053,-0.505316,1.310956,-0.132485,0.211990,0.081715,0.024845,-0.124374,-0.966431,-0.224816,-0.030671,-0.007126,0.000405,-15.179029,-33.245186,-8.659514,,,,,,,
1505914732.038021,-0.511968,1.314714,-0.123317,0.202548,0.141352,-0.000556,-0.124087,-0.967390,-0.220816,-0.028761,-0.005526,0.038199,-15.174606,-33.284679,-8.514334,,,,,,,
1505914732.057962,-0.514588,1.317251,-0.117847,0.073817,0.104658,0.060568,-0.123456,-0.968029,-0.218353,0.010419,-0.043140,0.003372,-15.160720,-33.303425,-8.465632,,,,,,,
1505914732.077957,-0.519422,1.318460,-0.111975,0.107847,0.030568,0.004634,-0.123929,-0.968332,-0.216737,-0.064563,0.022348,-0.051680,-15.157845,-33.316742,-8.418254,,,,,,,
1505914732.097924,-0.524138,1.319267,-0.107065,0.201194,-0.011628,-0.026117,-0.124559,-0.968533,-0.215474,-0.022093,0.009869,-0.038798,-15.148932,-33.345989,-8.317886,,,,,,,
1505914732.117892,-0.533647,1.324316,-0.097681,0.299325,-0.018889,-0.022362,-0.124113,-0.969777,-0.210067,-0.010591,-0.002864,-0.018448,-15.173231,-33.349720,-8.258429,,,,,,,
1505914732.137845,-0.545100,1.330241,-0.086894,0.354424,-0.073876,-0.061990,-0.123529,-0.971206,-0.203715,-0.012045,0.017745,-0.052847,-15.160301,-33.406487,-8.050125,,,,,,,
1505914732.157829,-0.550565,1.334367,-0.082638,0.626694,-0.126459,-0.067105,-0.122543,-0.972181,-0.199620,0.004990,0.017209,-0.143718,-15.120878,-33.463654,-7.885131,,,,,,,
1505914732.177796,-0.587208,1.348736,-0.048563,0.899944,-0.184402,-0.062608,-0.122021,-0.975446,-0.183348,-0.006808,0.004514,-0.104799,-15.106831,-33.559834,-7.493572,,,,,,,
1505914732.197764,-0.636579,1.366188,-0.001630,0.997173,-0.170320,-0.075866,-0.120782,-0.979141,-0.163387,0.012323,-0.002381,0.004146,-15.089566,-33.710197,-6.823489,,,,,,,
1505914732.217732,-0.693278,1.382520,0.052976,0.938575,-0.140609,-0.088888,-0.119611,-0.982328,-0.143960,0.036725,-0.024065,0.066857,-15.032755,-33.907532,-5.909987,,,,,,,
1505914732.237699,-0.746247,1.395891,0.105055,0.700514,-0.071960,-0.094182,-0.118136,-0.984743,-0.127769,0.025867,-0.023817,0.100318,-14.998821,-34.003319,-5.426062,,,,,,,
1505914732.257668,-0.778591,1.403477,0.137452,0.313279,0.006720,-0.036048,-0.116957,-0.986035,-0.118560,0.051253,-0.005924,0.164733,-14.958321,-34.078419,-5.053968,,,,,,,
1505914732.277635,-0.781540,1.403755,0.141563,-0.127483,0.080970,0.036732,-0.117113,-0.986081,-0.118020,0.007280,0.003110,0.115823,-14.931923,-34.126080,-4.804250,,,,,,,
1505914732.297603,-0.755216,1.398821,0.116834,-0.411951,0.102889,0.000893,-0.117300,-0.985249,-0.124603,-0.020380,0.004902,0.044479,-14.943653,-34.092342,-5.003194,,,,,,,
1505914732.317563,-0.716894,1.392215,0.080094,-0.456560,0.107128,-0.015413,-0.116714,-0.984097,-0.133910,-0.000550,-0.007938,-0.030107,-14.936644,-34.071274,-5.165020,,,,,,,
1505914732.337516,-0.692517,1.386777,0.056959,-0.243739,0.060528,0.038056,-0.116830,-0.983116,-0.140831,-0.019035,-0.017952,-0.084939,-14.917224,-34.004841,-5.637336,,,,,,,
1505914732.357507,-0.694574,1.385850,0.059156,0.104297,-0.032348,0.042790,-0.117702,-0.982946,-0.141290,-0.009937,-0.016016,-0.085959,-14.934967,-33.982353,-5.725283,,,,,,,
1505914732.377469,-0.711740,1.389226,0.075028,0.261975,-0.093459,-0.006972,-0.117943,-0.983561,-0.136736,-0.015419,0.011302,0.018251,-14.959284,-33.988419,-5.624913,,,,,,,
1505914732.397440,-0.734140,1.393452,0.095384,0.271671,-0.139170,-0.003976,-0.118190,-0.984316,-0.130973,-0.013906,-0.000548,0.055671,-14.969006,-34.027351,-5.357295,,,,,,,
1505914732.417385,-0.751513,1.396542,0.110086,0.146961,-0.139379,-0.013291,-0.118370,-0.984856,-0.126677,-0.009483,0.003106,0.085615,-14.977240,-34.048359,-5.198445,,,,,,,
1505914732.437377,-0.756253,1.397223,0.112569,-0.021860,-0.105751,-0.002317,-0.118509,-0.984974,-0.125626,0.000833,0.005054,0.087846,-14.982957,-34.064503,-5.074756,,,,,,,
1505914732.457328,-0.750128,1.395667,0.104438,-0.146812,-0.086889,0.002405,-0.118782,-0.984704,-0.127471,0.020378,0.002450,0.053481,-14.995087,-34.057755,-5.084194,,,,,,,
1505914732.477304,-0.737473,1.392780,0.090546,-0.214337,-0.006251,0.007842,-0.119071,-0.984197,-0.131068,0.002326,0.000371,0.004084,-15.003408,-34.043991,-5.151382,,,,,,,
1505914732.497282,-0.724786,1.390430,0.076430,-0.139075,-0.086778,-0.017897,-0.118931,-0.983778,-0.134299,0.041676,-0.035921,-0.002313,-15.006495,-34.023579,-5.275758,,,,,,,
1505914732.517250,-0.719772,1.389236,0.070279,-0.054106,-0.035659,0.000055,-0.119030,-0.983563,-0.135776,0.017331,-0.000201,0.000217,-15.007532,-34.011871,-5.347803,,,,,,,
1505914732.537210,-0.719281,1.389105,0.068977,0.009971,-0.042958,-0.002819,-0.119049,-0.983540,-0.135932,0.012435,-0.000744,0.031607,-15.008913,-34.009594,-5.358401,,,,,,,
1505914732.557185,-0.721522,1.389461,0.070545,0.020623,-0.028043,-0.004807,-0.119122,-0.983604,-0.135402,-0.000812,0.009956,0.048122,-15.011927,-34.011536,-5.337592,,,,,,,
1505914732.577153,-0.717596,1.389010,0.066350,-0.109443,0.006852,-0.020368,-0.118881,-0.983522,-0.136203,-0.034607,0.020784,0.133502,-15.008073,-34.014179,-5.331582,,,,,,,
1505914732.597116,-0.733699,1.389857,0.082523,-0.415831,0.089164,-0.022766,-0.120501,-0.983675,-0.133652,-0.025312,0.018160,0.130463,-14.993991,-34.004715,-5.430635,,,,,,,
1505914732.617089,-0.689143,1.381268,0.039845,-0.662634,0.151336,-0.011015,-0.119796,-0.982093,-0.145402,-0.015549,0.009666,0.108857,-15.047153,-33.977200,-5.455780,,,,,,,
1505914732.637058,-0.641839,1.370021,-0.004933,-0.720609,0.173440,0.011262,-0.119392,-0.979912,-0.159742,-0.001640,-0.007667,-0.000887,-15.021646,-33.880165,-6.092365,,,,,,,
1505914732.657006,-0.600347,1.358509,-0.044161,-0.684073,0.133164,0.000528,-0.119029,-0.977551,-0.173854,-0.004812,-0.018146,-0.017064,-15.011708,-33.809925,-6.493845,,,,,,,
1505914732.676980,-0.568021,1.348398,-0.075191,-0.546477,0.096178,0.011837,-0.118659,-0.975371,-0.185933,0.018790,-0.025788,-0.050914,-14.994127,-33.720383,-6.981700,,,,,,,
1505914732.696960,-0.550042,1.341027,-0.091245,-0.319833,0.126218,0.051929,-0.119052,-0.973719,-0.194160,-0.018994,0.013285,-0.111428,-14.996832,-33.622372,-7.433939,,,,,,,
1505914732.716914,-0.541661,1.337634,-0.098158,-0.115073,0.051415,-0.005131,-0.119123,-0.972941,-0.197981,-0.062426,0.024500,-0.090746,-15.005692,-33.583134,-7.591754,,,,,,,
1505914732.736896,-0.537227,1.336918,-0.101979,-0.042338,0.035664,-0.015501,-0.118600,-0.972775,-0.199105,-0.039267,-0.019184,0.003945,-14.992265,-33.570354,-7.674345,,,,,,,
1505914732.756865,-0.533938,1.334946,-0.104416,-0.147900,0.056378,0.055748,-0.118921,-0.972316,-0.201146,-0.021597,-0.068593,0.052479,-14.986498,-33.556717,-7.744943,,,,,,,
1505914732.776804,-0.530066,1.330155,-0.106714,-0.252329,0.097340,0.117487,-0.120495,-0.971185,-0.205621,-0.025653,-0.047873,0.037409,-15.016211,-33.518925,-7.850304,,,,,,,
1505914732.796800,-0.525523,1.324324,-0.108902,-0.263148,0.133450,0.120853,-0.122398,-0.969779,-0.211062,-0.027336,0.000281,0.011843,-15.063147,-33.462849,-7.998231,,,,,,,
1505914732.816768,-0.520355,1.318997,-0.111220,-0.236228,0.149557,0.098621,-0.123873,-0.968466,-0.216171,-0.026762,0.043753,0.003524,-15.147951,-33.346634,-8.317085,,,,,,,
1505914732.836736,-0.519330,1.313126,-0.109168,-0.249857,0.186863,0.071997,-0.126471,-0.966986,-0.221230,-0.013315,0.037696,0.016838,-15.240656,-33.253338,-8.518824,,,,,,,
1505914732.856703,-0.508862,1.307471,-0.115494,-0.311836,0.234595,0.068701,-0.126810,-0.965530,-0.227313,-0.005483,0.024719,0.021076,-15.240656,-33.253338,-8.518824,,,,,,,
1505914732.876672,-0.495112,1.302058,-0.124504,-0.322651,0.255807,0.075187,-0.126154,-0.964107,-0.233631,0.013743,-0.011540,0.009648,-15.254669,-33.106400,-9.049520,,,,,,,
1505914732.896640,-0.485938,1.296379,-0.128421,-0.238704,0.278205,0.096172,-0.126561,-0.962583,-0.239616,0.013371,-0.037493,-0.014550,-15.227005,-33.065853,-9.242300,,,,,,,
1505914732.916607,-0.480136,1.292398,-0.128241,-0.116361,0.303869,0.117406,-0.126937,-0.961497,-0.243743,0.000610,-0.041631,-0.014436,-15.235466,-33.010887,-9.423069,,,,,,,
1505914732.936574,-0.479601,1.290071,-0.121992,-0.039920,0.343268,0.137378,-0.127839,-0.960855,-0.245795,-0.009688,-0.038367,0.011741,-15.254631,-32.926777,-9.682769,,,,,,,
1505914732.956543,-0.487581,1.290041,-0.106694,-0.030710,0.374004,0.161182,-0.129810,-0.960846,-0.244793,-0.020519,-0.022171,0.042813,-15.310811,-32.889526,-9.720621,,,,,,,
1505914732.976510,-0.488499,1.287774,-0.097655,-0.045776,0.398406,0.165523,-0.131056,-0.960216,-0.246596,-0.024766,-0.010747,0.042037,-15.327211,-32.861591,-9.789014,,,,,,,
1505914732.996479,-0.496567,1.286292,-0.081283,-0.046731,0.425045,0.151762,-0.133720,-0.959801,-0.246782,-0.028039,0.017433,0.041750,-15.357401,-32.802380,-9.939138,,,,,,,
1505914733.016447,-0.494122,1.284167,-0.074923,-0.055821,0.428383,0.114226,-0.134083,-0.959202,-0.248903,-0.042293,0.048497,0.050142,-15.431530,-32.714355,-10.112926,,,,,,,
1505914733.036413,-0.499401,1.283424,-0.061213,-0.044510,0.443527,0.062987,-0.135736,-0.958992,-0.248817,-0.042716,0.046196,0.063698,-15.431530,-32.714355,-10.112926,,,,,,,
1505914733.056383,-0.490968,1.282491,-0.060513,-0.032186,0.463983,0.013919,-0.134055,-0.958727,-0.250743,-0.036462,0.031328,0.080104,-15.456341,-32.650860,-10.278885,,,,,,,
1505914733.076350,-0.489883,1.284946,-0.052429,-0.033961,0.496026,-0.019096,-0.132675,-0.959422,-0.248810,-0.017243,-0.004598,0.086518,-15.362568,-32.660538,-10.388125,,,,,,,
1505914733.096305,-0.476993,1.284604,-0.055247,-0.032797,0.515221,-0.030754,-0.129607,-0.959326,-0.250790,-0.017732,-0.011927,0.086514,-15.272556,-32.660500,-10.520141,,,,,,,
1505914733.116261,-0.473090,1.286615,-0.049410,-0.039425,0.501283,-0.009456,-0.127748,-0.959891,-0.249577,-0.040358,-0.030495,0.048146,-15.153425,-32.681694,-10.626054,,,,,,,
1505914733.136253,-0.462588,1.285251,-0.050507,-0.092153,0.454188,0.034925,-0.125704,-0.959508,-0.252076,-0.077009,-0.052943,-0.018279,-15.053506,-32.668190,-10.808039,,,,,,,
1505914733.156213,-0.461246,1.280890,-0.043528,-0.126863,0.417729,0.085916,-0.127227,-0.958271,-0.255989,-0.089188,-0.069348,-0.036140,-15.004055,-32.640091,-10.960609,,,,,,,
1505914733.176170,-0.457600,1.278443,-0.038842,-0.036706,0.404950,0.129216,-0.127329,-0.957568,-0.258554,-0.067221,-0.077130,-0.033270,-15.060765,-32.557667,-11.126741,,,,,,,
1505914733.196146,-0.459844,1.278379,-0.027921,0.085687,0.424245,0.148271,-0.127936,-0.957550,-0.258323,0.017111,-0.012863,0.022636,-15.051327,-32.497665,-11.313341,,,,,,,
1505914733.216118,-0.463002,1.279052,-0.015422,0.108113,0.449840,0.141062,-0.128463,-0.957744,-0.257341,0.029235,0.012477,0.040620,-15.050400,-32.481339,-11.361361,,,,,,,
1505914733.236091,-0.462727,1.279789,-0.006169,0.036058,0.456256,0.102113,-0.128077,-0.957955,-0.256744,0.005824,0.057321,0.017487,-15.017849,-32.468338,-11.441305,,,,,,,
1505914733.256060,-0.458106,1.278880,-0.001648,-0.033900,0.445636,0.069502,-0.127275,-0.957694,-0.258115,-0.004043,0.045035,0.006208,-14.984454,-32.450390,-11.535629,,,,,,,
1505914733.276003,-0.451991,1.277516,0.001331,-0.039293,0.450926,0.072715,-0.126264,-0.957301,-0.260063,-0.020693,-0.015188,-0.004433,-14.925534,-32.421474,-11.692258,,,,,,,
1505914733.295982,-0.450785,1.276123,0.009155,-0.006421,0.447725,0.088961,-0.126531,-0.956897,-0.261415,-0.051676,-0.021420,-0.001845,-14.890495,-32.370579,-11.876496,,,,,,,
1505914733.315965,-0.446322,1.275306,0.013785,-0.012534,0.445687,0.067492,-0.125701,-0.956659,-0.262683,-0.053621,-0.000097,0.003756,-14.852670,-32.350311,-11.978651,,,,,,,
1505914733.335904,-0.439252,1.274499,0.015905,-0.027112,0.462814,0.036450,-0.124168,-0.956424,-0.264263,-0.017357,0.025424,0.012493,-14.784876,-32.328350,-12.120956,,,,,,,
1505914733.355888,-0.429677,1.273805,0.015876,-0.013316,0.468138,0.040847,-0.121909,-0.956221,-0.266043,0.052436,0.008315,-0.017465,-14.655628,-32.311348,-12.321592,,,,,,,
1505914733.375864,-0.423425,1.273906,0.018533,0.045781,0.413063,0.021591,-0.120204,-0.956251,-0.266712,0.057322,0.010038,-0.015728,-14.589985,-32.302193,-12.423083,,,,,,,
1505914733.395810,-0.418771,1.275241,0.021389,0.089873,0.348355,0.009683,-0.118442,-0.956640,-0.266102,0.057910,0.013418,-0.007686,-14.501797,-32.309761,-12.506393,,,,,,,
1505914733.415794,-0.407675,1.277145,0.017407,0.078022,0.319558,0.024423,-0.114760,-0.957193,-0.265728,0.004393,0.007471,-0.004872,-14.325994,-32.358475,-12.582826,,,,,,,
1505914733.435756,-0.404572,1.278208,0.020638,0.064284,0.308935,0.016780,-0.113534,-0.957501,-0.265146,-0.016486,0.005673,-0.005041,-14.278753,-32.366962,-12.614648,,,,,,,
1505914733.455716,-0.400244,1.279498,0.022622,0.078482,0.312273,-0.008818,-0.111904,-0.957872,-0.264498,-0.022343,0.001451,-0.005933,-14.208990,-32.379539,-12.661056,,,,,,,
1505914733.475700,-0.396530,1.280952,0.025158,0.080776,0.305948,-0.019550,-0.110383,-0.958288,-0.263627,0.029969,-0.001215,0.001344,-14.115667,-32.402527,-12.706565,,,,,,,
1505914733.495675,-0.391779,1.282600,0.026193,0.085118,0.271926,-0.017587,-0.108526,-0.958758,-0.262688,0.043509,0.005953,0.006371,-14.049483,-32.421680,-12.731027,,,,,,,
1505914733.515622,-0.387796,1.284123,0.027125,0.067140,0.228312,-0.020100,-0.106927,-0.959190,-0.261767,0.062295,0.010764,0.003527,-13.971058,-32.447296,-12.752060,,,,,,,
1505914733.535599,-0.373735,1.286439,0.017508,0.052657,0.194391,-0.047177,-0.102424,-0.959842,-0.261175,0.028343,-0.019284,-0.014215,-13.783905,-32.513573,-12.786865,,,,,,,
1505914733.555579,-0.367901,1.288136,0.014913,0.079800,0.155234,-0.074025,-0.100313,-0.960317,-0.260248,0.016206,-0.029002,-0.022116,-13.722483,-32.535564,-12.796989,,,,,,,
1505914733.575528,-0.362212,1.290584,0.011970,0.110945,0.138342,-0.085721,-0.097997,-0.960997,-0.258615,0.001455,-0.031130,-0.030264,-13.634444,-32.577354,-12.784769,,,,,,,
1505914733.595511,-0.353878,1.292552,0.006197,0.123765,0.121348,-0.083606,-0.095183,-0.961539,-0.257648,0.029585,-0.004556,-0.029797,-13.503815,-32.634998,-12.776389,,,,,,,
1505914733.615483,-0.349990,1.295414,0.004297,0.122584,0.093633,-0.068786,-0.093236,-0.962321,-0.255430,0.039236,0.006862,-0.028917,-13.443139,-32.675133,-12.737741,,,,,,,
1505914733.635431,-0.337351,1.297427,-0.006396,0.103361,0.078693,-0.064715,-0.089359,-0.962867,-0.254760,0.046299,0.032492,-0.017533,-13.391385,-32.712440,-12.696433,,,,,,,
1505914733.655415,-0.332974,1.299285,-0.009278,0.056452,0.081804,-0.068189,-0.087658,-0.963367,-0.253458,0.057416,0.029208,-0.028037,-13.218723,-32.786129,-12.687297,,,,,,,
1505914733.675386,-0.314279,1.299252,-0.026051,0.009506,0.079587,-0.068494,-0.082915,-0.963358,-0.255082,0.059203,0.015863,-0.035446,-13.153366,-32.813553,-12.684322,,,,,,,
1505914733.695340,-0.307718,1.299584,-0.031036,-0.007605,0.093374,-0.068513,-0.081143,-0.963447,-0.255316,0.064526,0.008994,-0.039347,-13.013823,-32.835999,-12.769891,,,,,,,
1505914733.715316,-0.301220,1.299807,-0.035729,-0.007738,0.099712,-0.059908,-0.079418,-0.963507,-0.255632,0.057980,-0.007258,-0.034758,-12.912242,-32.858982,-12.813818,,,,,,,
1505914733.735290,-0.284339,1.299265,-0.050307,-0.022870,0.106003,-0.047118,-0.075238,-0.963361,-0.257438,0.044934,-0.008502,-0.032815,-12.756294,-32.885567,-12.901503,,,,,,,
1505914733.755234,-0.278966,1.298741,-0.053783,-0.046460,0.098464,-0.036595,-0.073993,-0.963221,-0.258323,0.032687,0.002771,-0.036751,-12.728277,-32.887787,-12.923491,,,,,,,
1505914733.775217,-0.268526,1.295951,-0.062331,-0.054875,0.093172,-0.045246,-0.072005,-0.962467,-0.261672,0.013854,0.021961,-0.039521,-12.651651,-32.884346,-13.007225,,,,,,,
1505914733.795194,-0.251304,1.292863,-0.077276,-0.043321,0.101653,-0.034423,-0.068227,-0.961625,-0.265750,0.030019,0.008713,-0.023495,-12.586981,-32.861202,-13.127899,,,,,,,
1505914733.815145,-0.241633,1.291630,-0.084745,-0.043480,0.105856,-0.023693,-0.065937,-0.961285,-0.267549,0.026447,-0.002704,-0.020491,-12.406242,-32.849609,-13.327446,,,,,,,
1505914733.835129,-0.224673,1.289328,-0.099439,-0.056013,0.087842,-0.041022,-0.061883,-0.960649,-0.270785,0.020409,-0.002700,-0.020490,-12.276080,-32.848263,-13.450720,,,,,,,
1505914733.855098,-0.215595,1.287768,-0.107070,-0.069687,0.068729,-0.051931,-0.059743,-0.960214,-0.272800,0.019734,0.000284,-0.017453,-12.208103,-32.843567,-13.523856,,,,,,,
1505914733.875065,-0.207482,1.286206,-0.114056,-0.074032,0.055924,-0.043468,-0.057837,-0.959777,-0.274742,0.016348,-0.000566,-0.011955,-12.104374,-32.838127,-13.629890,,,,,,,
1505914733.895033,-0.199112,1.284698,-0.121306,-0.064574,0.055894,-0.032706,-0.055821,-0.959352,-0.276636,0.011616,-0.008330,-0.006522,-12.032009,-32.827423,-13.719455,,,,,,,
1505914733.915001,-0.194781,1.283723,-0.124638,-0.041095,0.052751,-0.032585,-0.054804,-0.959077,-0.277792,0.002756,-0.007537,-0.005701,-11.989594,-32.823833,-13.765106,,,,,,,
1505914733.934969,-0.189600,1.283265,-0.128933,-0.023940,0.043238,-0.036825,-0.053446,-0.958947,-0.278503,0.010111,-0.005515,-0.004196,-11.934514,-32.823978,-13.812543,,,,,,,
1505914733.954936,-0.183449,1.283537,-0.134265,-0.021959,0.037867,-0.023997,-0.051685,-0.959024,-0.278571,0.017337,-0.012320,0.007758,-11.879579,-32.830875,-13.843472,,,,,,,
1505914733.974905,-0.180090,1.283610,-0.136997,-0.029556,0.029293,-0.012315,-0.050736,-0.959045,-0.278674,0.013032,-0.012605,0.010700,-11.840446,-32.841900,-13.850842,,,,,,,
1505914733.994872,-0.178352,1.283572,-0.138308,-0.031676,0.020779,-0.011309,-0.050258,-0.959034,-0.278798,0.003460,-0.008312,0.013890,-11.804012,-32.856956,-13.846234,,,,,,,
1505914734.014841,-0.177327,1.284031,-0.138945,-0.029534,0.023978,-0.012348,-0.049895,-0.959164,-0.278416,-0.001634,-0.012195,0.012913,-11.785360,-32.857464,-13.860908,,,,,,,
1505914734.034800,-0.176045,1.284107,-0.139708,-0.024212,0.032479,-0.011206,-0.049525,-0.959185,-0.278408,-0.000921,-0.014432,0.014599,-11.775591,-32.860237,-13.862632,,,,,,,
1505914734.054777,-0.174150,1.284399,-0.141017,-0.010275,0.029338,-0.015425,-0.048949,-0.959268,-0.278225,0.003310,-0.014991,0.013195,-11.754756,-32.873825,-13.848095,,,,,,,
1505914734.074745,-0.172331,1.285446,-0.142316,0.003685,0.028333,-0.021774,-0.048270,-0.959563,-0.277324,0.002555,-0.010957,0.013057,-11.728510,-32.884396,-13.845254,,,,,,,
1505914734.094710,-0.170550,1.286162,-0.143586,0.008979,0.028329,-0.018530,-0.047660,-0.959764,-0.276732,0.001364,-0.012861,0.011656,-11.708880,-32.897545,-13.830624,,,,,,,
1505914734.114672,-0.170118,1.287162,-0.143502,0.011064,0.031507,-0.015285,-0.047378,-0.960045,-0.275807,-0.006394,-0.008141,0.009998,-11.687652,-32.917381,-13.801349,,,,,,,
1505914734.134648,-0.169927,1.287826,-0.143173,0.012143,0.032577,-0.016342,-0.047217,-0.960230,-0.275187,-0.004373,0.001124,0.007640,-11.677180,-32.929836,-13.780483,,,,,,,
1505914734.154608,-0.168814,1.288528,-0.143613,0.012055,0.038931,-0.010949,-0.046798,-0.960426,-0.274576,-0.000093,-0.001107,0.007501,-11.668320,-32.939194,-13.765615,,,,,,,
1505914734.174584,-0.167089,1.289326,-0.144424,0.014119,0.048488,-0.007667,-0.046197,-0.960648,-0.273900,0.004616,-0.005462,0.007207,-11.648390,-32.952026,-13.751774,,,,,,,
1505914734.194552,-0.164698,1.290097,-0.145779,0.014072,0.050600,-0.004443,-0.045420,-0.960862,-0.273279,0.006769,-0.004455,0.007120,-11.613955,-32.968678,-13.740993,,,,,,,
1505914734.214518,-0.162686,1.290515,-0.146657,0.009732,0.055887,-0.000154,-0.044805,-0.960978,-0.272973,0.004705,-0.000219,0.000207,-11.589193,-32.980694,-13.733055,,,,,,,
1505914734.234487,-0.162110,1.290489,-0.146158,0.003295,0.053733,0.003007,-0.044652,-0.960970,-0.273024,-0.003337,0.003527,-0.003816,-11.570740,-32.984062,-13.740520,,,,,,,
1505914734.254428,-0.162990,1.290392,-0.144210,0.006412,0.057966,0.008408,-0.044907,-0.960944,-0.273076,-0.010559,0.000403,-0.003291,-11.565119,-32.979511,-13.756176,,,,,,,
1505914734.274424,-0.164034,1.290388,-0.141957,0.011687,0.063276,0.011687,-0.045193,-0.960942,-0.273033,-0.008350,-0.001323,-0.002952,-11.574860,-32.972336,-13.765171,,,,,,,
1505914734.294369,-0.164255,1.290477,-0.140495,0.004268,0.061150,0.008417,-0.045239,-0.960967,-0.272939,-0.008518,-0.002702,-0.001063,-11.573915,-32.969818,-13.772006,,,,,,,
1505914734.314360,-0.165342,1.290256,-0.138344,-0.000977,0.054785,0.002995,-0.045571,-0.960906,-0.273099,-0.012626,-0.004365,-0.006000,-11.572853,-32.963524,-13.787948,,,,,,,
1505914734.334310,-0.165140,1.290115,-0.137521,0.006531,0.050557,0.000873,-0.045538,-0.960867,-0.273242,-0.012445,-0.004618,-0.009152,-11.573421,-32.958447,-13.799608,,,,,,,
1505914734.354295,-0.164964,1.290152,-0.136744,0.016195,0.048470,-0.003364,-0.045484,-0.960877,-0.273214,-0.011065,-0.006194,-0.010050,-11.570894,-32.954899,-13.810194,,,,,,,
1505914734.374263,-0.164947,1.290192,-0.135902,0.018361,0.042100,-0.004459,-0.045473,-0.960888,-0.273177,-0.003950,-0.003345,-0.006928,-11.564947,-32.952682,-13.820454,,,,,,,
1505914734.394202,-0.164254,1.290313,-0.135866,0.007675,0.033558,-0.001362,-0.045265,-0.960922,-0.273094,-0.004326,-0.001816,-0.006386,-11.556553,-32.952496,-13.827925,,,,,,,
1505914734.414198,-0.165399,1.290019,-0.134253,-0.000843,0.022904,-0.000404,-0.045624,-0.960840,-0.273321,-0.010986,0.003153,-0.005167,-11.558516,-32.949234,-13.834057,,,,,,,
1505914734.434167,-0.166531,1.289623,-0.132802,-0.004046,0.018639,0.000624,-0.045996,-0.960731,-0.273644,-0.008295,0.005225,-0.003456,-11.570210,-32.938763,-13.849203,,,,,,,
1505914734.454132,-0.167690,1.289318,-0.131397,-0.006178,0.013314,0.001652,-0.046362,-0.960646,-0.273879,-0.007929,0.003386,-0.001191,-11.582563,-32.929962,-13.859812,,,,,,,
1505914734.474102,-0.168510,1.289016,-0.130469,-0.012593,0.003717,0.004770,-0.046635,-0.960562,-0.274128,-0.009853,0.004736,-0.001278,-11.587623,-32.925732,-13.865626,,,,,,,
1505914734.494070,-0.170009,1.288517,-0.129073,-0.020075,-0.005882,0.007882,-0.047127,-0.960423,-0.274530,-0.007163,0.002690,-0.001441,-11.606690,-32.912384,-13.881355,,,,,,,
1505914734.514038,-0.170850,1.288039,-0.128380,-0.024311,-0.006943,0.005708,-0.047436,-0.960290,-0.274942,-0.005634,-0.002509,0.000238,-11.618068,-32.903927,-13.891883,,,,,,,
1505914734.534005,-0.171940,1.287535,-0.127455,-0.020040,-0.007998,0.005729,-0.047819,-0.960149,-0.275367,-0.004961,-0.006526,-0.001092,-11.633128,-32.892967,-13.905228,,,,,,,
1505914734.553963,-0.172652,1.287205,-0.126919,-0.009383,-0.009045,0.006857,-0.048069,-0.960057,-0.275646,-0.002086,-0.006816,-0.003743,-11.646095,-32.883923,-13.915762,,,,,,,
1505914734.573935,-0.173533,1.287081,-0.126251,0.000239,-0.011148,0.005832,-0.048333,-0.960022,-0.275720,-0.003211,-0.004272,-0.003332,-11.657619,-32.878540,-13.918831,,,,,,,
1505914734.593898,-0.174498,1.287100,-0.125514,0.001334,-0.011136,0.003697,-0.048595,-0.960028,-0.275655,-0.004322,-0.003611,0.000722,-11.661157,-32.877895,-13.917393,,,,,,,
1505914734.613853,-0.175353,1.287173,-0.124876,0.000279,-0.010070,0.002626,-0.048819,-0.960048,-0.275544,-0.002466,-0.003697,0.000520,-11.675189,-32.876423,-13.909105,,,,,,,
1505914734.633845,-0.176314,1.287260,-0.124121,0.002427,-0.010061,0.001569,-0.049069,-0.960072,-0.275415,-0.004367,-0.004176,-0.000219,-11.682667,-32.876305,-13.903103,,,,,,,
1505914734.653795,-0.176801,1.287331,-0.123854,0.005606,-0.012191,0.003717,-0.049191,-0.960092,-0.275324,-0.000217,-0.003012,-0.000127,-11.688922,-32.875565,-13.899595,,,,,,,
1505914734.673765,-0.177883,1.287569,-0.123069,0.010897,-0.016453,0.008007,-0.049449,-0.960159,-0.275046,-0.000661,-0.001649,0.001990,-11.700337,-32.876926,-13.886771,,,,,,,
1505914734.693735,-0.179523,1.287996,-0.121726,0.017264,-0.014325,0.010200,-0.049826,-0.960278,-0.274561,-0.001611,-0.003681,0.003138,-11.711515,-32.878983,-13.872463,,,,,,,
1505914734.713717,-0.181133,1.288338,-0.120365,0.018328,-0.013260,0.010213,-0.050209,-0.960373,-0.274158,-0.004966,-0.003250,0.001087,-11.723110,-32.882339,-13.854704,,,,,,,
1505914734.733686,-0.182942,1.288535,-0.118836,0.011908,-0.016472,0.012298,-0.050671,-0.960428,-0.273881,-0.004932,-0.002341,-0.002334,-11.736612,-32.883289,-13.841019,,,,,,,
1505914734.753653,-0.184873,1.288519,-0.117249,0.008732,-0.015406,0.010145,-0.051202,-0.960423,-0.273797,-0.004370,-0.001567,-0.002570,-11.760778,-32.879787,-13.828816,,,,,,,
1505914734.773621,-0.186058,1.288660,-0.116294,0.013004,-0.012203,0.009119,-0.051502,-0.960463,-0.273603,-0.002392,-0.001436,-0.001696,-11.772119,-32.878155,-13.823046,,,,,,,
1505914734.793589,-0.187553,1.288975,-0.115014,0.019419,-0.012185,0.008087,-0.051854,-0.960551,-0.273228,-0.003978,-0.004141,-0.000789,-11.784925,-32.878075,-13.812319,,,,,,,
1505914734.813556,-0.189329,1.289147,-0.113474,0.016190,-0.012202,0.010211,-0.052308,-0.960598,-0.272974,-0.005431,-0.002140,-0.003241,-11.802145,-32.879425,-13.794391,,,,,,,
1505914734.833525,-0.190664,1.289361,-0.112314,0.016169,-0.010081,0.011295,-0.052634,-0.960658,-0.272702,-0.003641,-0.003331,-0.003147,-11.813452,-32.879093,-13.785499,,,,,,,
1505914734.853492,-0.192145,1.289613,-0.110989,0.024717,-0.010059,0.010275,-0.052991,-0.960728,-0.272386,-0.003039,0.000858,-0.001830,-11.831630,-32.879948,-13.767854,,,,,,,
1505914734.873460,-0.193960,1.290060,-0.109349,0.020464,-0.010063,0.009180,-0.053403,-0.960852,-0.271868,-0.003909,0.000875,0.000231,-11.844157,-32.881626,-13.753077,,,,,,,
,,,,,,,,,,,,,,,,42.293606,-71.264382,61.448730,-1.000000,-1.000000,1505914734.864982,
1505914734.893428,-0.195519,1.290377,-0.108017,0.014070,-0.012202,0.009129,-0.053767,-0.960940,-0.271485,-0.006200,-0.000624,0.001100,-11.853795,-32.883617,-13.740009,,,,,,,
1505914734.913378,-0.197862,1.290654,-0.105883,0.009762,-0.007969,0.011272,-0.054351,-0.961016,-0.271098,-0.007020,-0.003156,0.002345,-11.874464,-32.883522,-13.722368,,,,,,,
1505914735.133023,-0.212148,1.293501,-0.090443,0.022549,0.010120,0.010378,-0.057642,-0.961800,-0.267617,-0.009970,0.000862,0.004236,-11.994806,-32.888771,-13.604619,,,,,,,
1505914735.153007,-0.214675,1.293974,-0.087796,0.018312,0.004800,0.009251,-0.058221,-0.961929,-0.267027,-0.007483,-0.004044,0.007658,-12.007821,-32.891495,-13.586550,,,,,,,
1505914735.172979,-0.216362,1.294299,-0.085968,0.009748,0.010093,0.010304,-0.058604,-0.962018,-0.266623,-0.010579,-0.004489,0.005606,-12.028187,-32.892277,-13.566622,,,,,,,
1505914735.212894,-0.219446,1.294739,-0.082403,0.007656,0.015424,0.006042,-0.059334,-0.962138,-0.266027,-0.009513,0.000361,-0.000879,-12.047117,-32.891373,-13.552008,,,,,,,
1505914735.232883,-0.220036,1.294787,-0.081445,0.005561,0.016498,0.002823,-0.059481,-0.962151,-0.265948,-0.007032,-0.000465,-0.001828,-12.056815,-32.888947,-13.549273,,,,,,,
1505914735.252835,-0.220747,1.294754,-0.080414,0.001245,0.018600,0.006024,-0.059677,-0.962142,-0.265936,-0.012650,-0.002214,-0.002817,-12.055828,-32.889297,-13.549305,,,,,,,
1505914734.933364,-0.199600,1.290972,-0.104238,0.005490,-0.001594,0.010215,-0.054762,-0.961104,-0.270704,0.000105,0.000273,0.003980,-11.899522,-32.883442,-13.700840,,,,,,,
1505914734.953331,-0.200531,1.291083,-0.103299,0.005491,-0.001594,0.010215,-0.054992,-0.961135,-0.270547,-0.000733,-0.000779,0.002222,-11.903303,-32.884106,-13.695963,,,,,,,
1505914734.973289,-0.201472,1.291233,-0.102336,0.007632,0.000541,0.009170,-0.055218,-0.961176,-0.270354,-0.002994,-0.004690,-0.001908,-11.909871,-32.884354,-13.689653,,,,,,,
1505914734.993265,-0.202457,1.291368,-0.101311,0.012952,0.000546,0.010273,-0.055458,-0.961213,-0.270173,-0.002357,-0.003768,-0.002288,-11.920267,-32.883869,-13.681776,,,,,,,
1505914735.013211,-0.203550,1.291589,-0.100136,0.014013,0.002675,0.010293,-0.055711,-0.961274,-0.269904,-0.003143,-0.004241,-0.001290,-11.926958,-32.883701,-13.676334,,,,,,,
1505914735.192929,-0.217728,1.294532,-0.084407,0.005468,0.014337,0.010305,-0.058920,-0.962081,-0.266324,-0.008371,-0.006028,0.006025,-12.037453,-32.892727,-13.557309,,,,,,,
1505914735.033195,-0.205475,1.291873,-0.098024,0.015024,0.014344,0.013568,-0.056174,-0.961353,-0.269529,-0.005029,-0.001813,0.000211,-11.938292,-32.884308,-13.664984,,,,,,,
1505914735.053154,-0.206434,1.292137,-0.096795,0.018287,0.012244,0.009291,-0.056381,-0.961425,-0.269227,-0.002945,-0.000901,-0.000716,-11.954626,-32.883728,-13.652100,,,,,,,
1505914735.073117,-0.207297,1.292455,-0.095726,0.016149,0.009045,0.010330,-0.056550,-0.961513,-0.268879,-0.004500,-0.004857,0.002445,-11.958311,-32.885517,-13.644559,,,,,,,
1505914735.093101,-0.209090,1.292885,-0.093835,0.011892,0.005847,0.010287,-0.056946,-0.961631,-0.268372,-0.009674,0.000281,0.001145,-11.968964,-32.887913,-13.629433,,,,,,,
1505914735.113076,-0.210611,1.293136,-0.092171,0.015073,0.007974,0.011390,-0.057304,-0.961699,-0.268049,-0.008446,-0.000978,0.002974,-11.984365,-32.888596,-13.614251,,,,,,,
1505914735.272809,-0.222570,1.294714,-0.078264,0.004439,0.020732,0.006058,-0.060170,-0.962131,-0.265865,-0.008509,-0.001248,-0.000172,-12.070301,-32.882549,-13.552797,,,,,,,
1505914735.292787,-0.224507,1.295024,-0.076006,0.009760,0.020737,0.007163,-0.060619,-0.962215,-0.265457,-0.008626,0.001476,0.005798,-12.084551,-32.880390,-13.545336,,,,,,,
1505914735.312740,-0.225235,1.295239,-0.074847,0.004455,0.020736,0.004990,-0.060766,-0.962274,-0.265211,-0.007120,0.000878,0.007033,-12.091021,-32.880047,-13.540390,,,,,,,
1505914735.332694,-0.228012,1.295671,-0.071773,0.001277,0.018607,0.003890,-0.061408,-0.962391,-0.264637,-0.011208,-0.001095,0.007251,-12.107693,-32.880947,-13.523291,,,,,,,
1505914735.352690,-0.229576,1.295902,-0.069833,-0.002985,0.023888,0.003883,-0.061771,-0.962454,-0.264323,-0.008526,-0.002100,0.008479,-12.121366,-32.879162,-13.515383,,,,,,,
1505914735.372647,-0.229940,1.295981,-0.068958,-0.001920,0.029211,0.002851,-0.061850,-0.962475,-0.264227,-0.007226,-0.003971,0.007193,-12.126325,-32.878738,-13.511963,,,,,,,
1505914735.392609,-0.231568,1.296286,-0.066843,-0.000830,0.027091,0.001775,-0.062213,-0.962558,-0.263840,-0.008435,-0.006223,0.004426,-12.133594,-32.878666,-13.505621,,,,,,,
1505914735.412595,-0.231649,1.296373,-0.066249,0.001335,0.026042,-0.000359,-0.062215,-0.962582,-0.263753,-0.006007,-0.005039,0.004476,-12.135084,-32.877804,-13.506376,,,,,,,
1505914735.432558,-0.231990,1.296525,-0.065490,0.002401,0.021786,0.000693,-0.062271,-0.962623,-0.263590,-0.007522,-0.004006,0.005854,-12.134457,-32.878166,-13.506055,,,,,,,
1505914735.452530,-0.233633,1.296911,-0.063547,0.004567,0.016479,-0.000395,-0.062618,-0.962727,-0.263125,-0.008259,-0.006221,0.005847,-12.142224,-32.879925,-13.494797,,,,,,,
1505914735.472499,-0.235103,1.297137,-0.061862,0.007813,0.011179,-0.002548,-0.062954,-0.962788,-0.262822,-0.010898,-0.005687,0.001072,-12.147084,-32.880402,-13.489252,,,,,,,
1505914735.492466,-0.236430,1.297391,-0.060488,0.011160,0.004851,-0.012203,-0.063246,-0.962857,-0.262500,-0.011080,-0.005390,0.001636,-12.164460,-32.879726,-13.475239,,,,,,,
1505914735.512435,-0.235987,1.297792,-0.060924,0.012286,0.001627,-0.015440,-0.063039,-0.962965,-0.262152,-0.005030,-0.003664,0.005225,-12.159566,-32.885937,-13.464490,,,,,,,
1505914735.532403,-0.235974,1.298427,-0.060995,0.011238,0.000566,-0.016523,-0.062893,-0.963136,-0.261559,-0.003712,-0.002013,0.008705,-12.155191,-32.891659,-13.454463,,,,,,,
1505914735.552370,-0.235608,1.298959,-0.061404,0.011200,-0.000513,-0.013317,-0.062677,-0.963279,-0.261084,-0.000418,0.000846,0.004233,-12.152761,-32.903717,-13.427147,,,,,,,
1505914735.572333,-0.234888,1.299278,-0.062151,0.010137,-0.001578,-0.013329,-0.062418,-0.963365,-0.260830,0.002832,0.001680,0.000576,-12.144019,-32.912537,-13.413426,,,,,,,
1505914735.592306,-0.232932,1.299565,-0.064118,0.006936,-0.001584,-0.013350,-0.061844,-0.963442,-0.260683,0.007843,0.001665,0.001527,-12.139843,-32.914772,-13.411730,,,,,,,
1505914735.612274,-0.231008,1.299775,-0.066035,0.004714,-0.000556,-0.006933,-0.061296,-0.963498,-0.260604,0.007677,-0.001636,0.000045,-12.108953,-32.928207,-13.406672,,,,,,,
1505914735.632243,-0.230077,1.300054,-0.066959,0.008912,-0.000572,-0.001554,-0.060992,-0.963573,-0.260399,0.005511,-0.005040,0.000740,-12.094721,-32.935596,-13.401369,,,,,,,
1505914735.652210,-0.229989,1.300306,-0.067041,0.011088,-0.000553,-0.004754,-0.060914,-0.963640,-0.260169,-0.001312,-0.001616,0.000815,-12.090302,-32.938263,-13.398804,,,,,,,
1505914735.672178,-0.229657,1.300525,-0.067399,0.004748,0.001530,-0.010150,-0.060779,-0.963698,-0.259983,-0.001171,-0.001115,0.001118,-12.085938,-32.944572,-13.387222,,,,,,,
1505914735.692147,-0.229200,1.300663,-0.067849,0.001532,0.006839,-0.010137,-0.060630,-0.963735,-0.259881,0.000373,0.000005,0.000207,-12.080290,-32.949074,-13.381236,,,,,,,
1505914735.712089,-0.227863,1.300690,-0.069049,-0.001714,0.007881,-0.006937,-0.060277,-0.963742,-0.259937,0.004598,0.001951,-0.001431,-12.071478,-32.951946,-13.382115,,,,,,,
1505914735.732082,-0.225789,1.300583,-0.070933,-0.001783,0.006792,-0.001591,-0.059761,-0.963714,-0.260162,0.010780,-0.000428,-0.003998,-12.055331,-32.954510,-13.390366,,,,,,,
1505914735.752050,-0.224086,1.300560,-0.072462,-0.003973,0.006768,0.002678,-0.059322,-0.963708,-0.260284,0.010067,-0.002341,-0.000961,-12.037257,-32.957256,-13.399851,,,,,,,
1505914735.772013,-0.223184,1.300486,-0.073250,-0.006115,0.004633,0.003722,-0.059103,-0.963688,-0.260407,0.005652,-0.002468,-0.000548,-12.025374,-32.959576,-13.404815,,,,,,,
1505914735.791985,-0.222824,1.300335,-0.073440,-0.010370,0.009950,0.001586,-0.059042,-0.963648,-0.260571,0.002890,-0.003241,0.000134,-12.022228,-32.959057,-13.408912,,,,,,,
1505914735.811953,-0.220648,1.299962,-0.075301,-0.017826,0.015261,-0.000570,-0.058553,-0.963548,-0.261049,0.008947,0.002229,-0.005140,-12.007945,-32.956963,-13.426851,,,,,,,
1505914735.831919,-0.219071,1.299298,-0.076586,-0.021030,0.010866,-0.000640,-0.058281,-0.963370,-0.261766,0.003578,-0.000345,-0.008452,-11.994194,-32.952877,-13.449141,,,,,,,
1505914735.851875,-0.218087,1.298805,-0.077380,-0.021049,0.007667,0.001482,-0.058126,-0.963238,-0.262286,0.005437,-0.002247,-0.005139,-11.989223,-32.947437,-13.466889,,,,,,,
1505914735.871858,-0.216470,1.298276,-0.078806,-0.023177,0.005537,0.001455,-0.057811,-0.963096,-0.262878,0.008159,-0.003305,-0.004563,-11.977688,-32.938740,-13.498395,,,,,,,
,,,,,,,,,,,,,,,,42.293504,-71.264529,61.448730,-1.000000,-1.000000,1505914735.601532,
1505914735.891816,-0.215521,1.297812,-0.079733,-0.024172,0.000239,-0.002867,-0.057657,-0.962970,-0.263370,0.003763,-0.002880,-0.004788,-11.971421,-32.934929,-13.513253,,,,,,,
1505914735.911793,-0.214831,1.297321,-0.080481,-0.023053,-0.002933,-0.006093,-0.057576,-0.962838,-0.263871,-0.001384,-0.001578,-0.002395,-11.965553,-32.931503,-13.526787,,,,,,,
1505914735.931762,-0.214247,1.296908,-0.081202,-0.023015,-0.006113,-0.008253,-0.057507,-0.962727,-0.264293,-0.000706,-0.003140,0.001979,-11.962172,-32.922585,-13.551474,,,,,,,
,,,,,,,,,,,,,,,,42.293408,-71.264664,61.448730,-1.000000,-1.000000,1505914735.905372,
1505914735.951731,-0.213319,1.296495,-0.082275,-0.027254,-0.006111,-0.010420,-0.057345,-0.962615,-0.264735,-0.002744,-0.007173,0.001322,-11.957890,-32.919403,-13.562983,,,,,,,
,,,,,,,,,,,,,,,,42.293317,-71.264789,61.448730,-1.000000,-1.000000,1505914735.941745,
1505914735.971697,-0.211724,1.296079,-0.084023,-0.027232,-0.003975,-0.012550,-0.057007,-0.962502,-0.265218,0.002778,-0.009010,-0.000438,-11.951509,-32.916618,-13.575357,,,,,,,
1505914735.991665,-0.209858,1.295648,-0.086009,-0.020863,-0.001996,-0.012532,-0.056599,-0.962385,-0.265729,0.003422,-0.005129,-0.005053,-11.936404,-32.914528,-13.593703,,,,,,,
,,,,,,,,,,,,,,,,42.293230,-71.264909,61.448730,-1.000000,-1.000000,1505914735.967909,
1505914736.011632,-0.208614,1.295317,-0.087372,-0.014476,-0.001988,-0.011423,-0.056334,-0.962295,-0.266110,0.002638,0.000061,-0.004077,-11.924643,-32.912098,-13.609889,,,,,,,
,,,,,,,,,,,,,,,,42.293146,-71.265024,61.448730,-1.000000,-1.000000,1505914735.982554,
1505914736.031601,-0.207546,1.295063,-0.088547,-0.014487,-0.003056,-0.010359,-0.056100,-0.962226,-0.266410,0.001947,-0.000116,-0.001610,-11.921089,-32.911564,-13.614298,,,,,,,
1505914736.051569,-0.206866,1.294834,-0.089308,-0.023042,-0.000952,-0.009326,-0.055964,-0.962164,-0.266663,0.000224,-0.000529,0.003510,-11.912413,-32.908772,-13.628633,,,,,,,
1505914736.071512,-0.205581,1.294405,-0.090635,-0.028380,0.000100,-0.009352,-0.055706,-0.962046,-0.267140,0.004085,-0.002858,0.000950,-11.903448,-32.906639,-13.641613,,,,,,,
1505914736.091505,-0.204067,1.293915,-0.092187,-0.029478,0.001151,-0.007211,-0.055397,-0.961913,-0.267685,0.006660,-0.001314,-0.000381,-11.900364,-32.903954,-13.650774,,,,,,,
1505914736.111464,-0.202136,1.293399,-0.094165,-0.023090,-0.004162,-0.005064,-0.054979,-0.961771,-0.268278,0.007158,0.001322,-0.001879,-11.883014,-32.898102,-13.679955,,,,,,,
1505914736.131418,-0.201186,1.292950,-0.095172,-0.026297,-0.002042,-0.005071,-0.054811,-0.961648,-0.268753,0.002550,-0.003272,0.000198,-11.871841,-32.894806,-13.697572,,,,,,,
1505914736.151384,-0.200208,1.292507,-0.096179,-0.026259,0.002058,-0.011507,-0.054633,-0.961527,-0.269224,0.000037,-0.006231,0.001051,-11.870279,-32.891945,-13.705790,,,,,,,
1505914736.171377,-0.198482,1.292139,-0.097904,-0.019794,0.004222,-0.016811,-0.054238,-0.961426,-0.269664,0.004067,-0.007340,-0.004384,-11.857933,-32.887089,-13.728113,,,,,,,
1505914736.191324,-0.196822,1.291822,-0.099506,-0.016537,0.004249,-0.021075,-0.053850,-0.961338,-0.270053,-0.001708,-0.006359,-0.005246,-11.841139,-32.885979,-13.745254,,,,,,,
1505914736.211313,-0.194525,1.291461,-0.101751,-0.016562,0.007433,-0.019986,-0.053296,-0.961239,-0.270517,0.001599,-0.008350,-0.006186,-11.827480,-32.886234,-13.756398,,,,,,,
1505914736.231254,-0.192282,1.290879,-0.103770,-0.016557,0.014885,-0.022083,-0.052796,-0.961078,-0.271184,-0.000381,-0.004208,-0.010645,-11.817818,-32.885918,-13.765465,,,,,,,
1505914736.251249,-0.191627,1.290497,-0.104363,-0.011079,0.004304,-0.030680,-0.052689,-0.960973,-0.271580,-0.013626,-0.000835,-0.000240,-11.795520,-32.878727,-13.801716,,,,,,,
1505914736.271217,-0.191174,1.290559,-0.105014,-0.008911,-0.002066,-0.031774,-0.052554,-0.960990,-0.271545,-0.021390,0.002662,0.009735,-11.784644,-32.879852,-13.808326,,,,,,,
1505914736.291146,-0.192384,1.290290,-0.104056,-0.022850,-0.002120,-0.026499,-0.052932,-0.960915,-0.271735,-0.018067,0.008523,0.002173,-11.804341,-32.877216,-13.797778,,,,,,,
1505914736.311097,-0.192229,1.289507,-0.104413,-0.033574,-0.002326,-0.025522,-0.053034,-0.960698,-0.272482,-0.013159,0.006108,-0.003931,-11.807892,-32.868134,-13.816357,,,,,,,
1505914736.331082,-0.191114,1.288835,-0.105725,-0.033515,-0.003369,-0.029810,-0.052853,-0.960512,-0.273174,-0.016148,0.003908,-0.000156,-11.805679,-32.860783,-13.835727,,,,,,,
1505914736.351050,-0.191612,1.288233,-0.105620,-0.035593,-0.007612,-0.033058,-0.053099,-0.960344,-0.273716,-0.018664,-0.003462,0.000812,-11.815498,-32.849888,-13.853206,,,,,,,
1505914736.371016,-0.192753,1.287674,-0.104870,-0.020752,-0.008682,-0.025475,-0.053514,-0.960188,-0.274182,-0.012007,0.001188,-0.000736,-11.825353,-32.836845,-13.875696,,,,,,,
1505914736.390986,-0.192001,1.287545,-0.105840,0.001557,-0.005478,-0.018896,-0.053331,-0.960152,-0.274343,-0.009016,0.006035,0.000082,-11.823990,-32.834499,-13.882401,,,,,,,
1505914736.410954,-0.192521,1.287621,-0.105590,0.010164,-0.010757,-0.023158,-0.053460,-0.960173,-0.274244,-0.011359,0.011412,0.003141,-11.824904,-32.835529,-13.879202,,,,,,,
1505914736.430921,-0.192789,1.287930,-0.105698,0.000649,-0.006489,-0.030684,-0.053476,-0.960259,-0.273939,-0.011022,0.005807,0.008741,-11.833439,-32.836727,-13.869083,,,,,,,
1505914736.450890,-0.190953,1.287963,-0.107743,-0.021398,0.002107,-0.059679,-0.052967,-0.960269,-0.274005,-0.017910,0.000903,0.009249,-11.827805,-32.841476,-13.862638,,,,,,,
1505914736.470858,-0.187497,1.287465,-0.111504,-0.061363,0.007382,-0.108104,-0.052109,-0.960129,-0.274656,-0.024902,-0.002181,0.003172,-11.787502,-32.849789,-13.877268,,,,,,,
1505914736.490825,-0.178293,1.285546,-0.120619,-0.137804,0.042484,-0.144760,-0.049906,-0.959591,-0.276937,-0.023352,0.010830,-0.006282,-11.737010,-32.840816,-13.941161,,,,,,,
1505914736.510794,-0.166415,1.282506,-0.132149,-0.156673,0.043629,-0.170567,-0.047096,-0.958731,-0.280386,-0.027458,0.014853,-0.009073,-11.682009,-32.837627,-13.994755,,,,,,,
1505914736.530762,-0.156090,1.280387,-0.142689,-0.060899,0.006485,-0.143442,-0.044514,-0.958127,-0.282863,-0.008114,-0.000278,-0.003743,-11.539237,-32.814285,-14.166906,,,,,,,
1505914736.550729,-0.149256,1.281420,-0.149710,0.029556,-0.003376,-0.042291,-0.042433,-0.958422,-0.282182,0.023497,-0.022520,0.026948,-11.455965,-32.845428,-14.162306,,,,,,,
1505914736.570689,-0.149531,1.283322,-0.150018,0.043766,-0.061080,0.025986,-0.042239,-0.958963,-0.280367,0.021731,-0.016516,0.041094,-11.447063,-32.854034,-14.149547,,,,,,,
1505914736.590665,-0.153989,1.283645,-0.148148,0.001584,-0.178059,0.014318,-0.043441,-0.959055,-0.279870,-0.053056,0.032861,0.056359,-11.483427,-32.881428,-14.056137,,,,,,,
1505914736.610632,-0.156874,1.282757,-0.149544,-0.075591,-0.220532,-0.030309,-0.044381,-0.958803,-0.280585,-0.081718,0.013963,0.076285,-11.538746,-32.874004,-14.028167,,,,,,,
1505914736.630600,-0.163935,1.282232,-0.147149,-0.131785,-0.198176,-0.061561,-0.046443,-0.958653,-0.280761,-0.077931,-0.011607,0.078353,-11.557266,-32.866402,-14.030743,,,,,,,
1505914736.650552,-0.161763,1.279625,-0.153659,-0.144393,-0.210027,-0.076727,-0.046236,-0.957908,-0.283327,-0.015883,-0.101265,0.046480,-11.649228,-32.837803,-14.021645,,,,,,,
1505914736.670536,-0.158609,1.279026,-0.161696,-0.064889,-0.238407,-0.111766,-0.045432,-0.957736,-0.284038,0.006599,-0.098950,0.018916,-11.653564,-32.824623,-14.048877,,,,,,,
1505914736.690479,-0.154320,1.279285,-0.171002,0.018700,-0.226400,-0.142252,-0.044176,-0.957811,-0.283984,0.019945,-0.081313,0.017245,-11.639767,-32.848656,-14.004076,,,,,,,
1505914736.710467,-0.146489,1.280626,-0.183533,0.043990,-0.220075,-0.119577,-0.041763,-0.958195,-0.283051,0.043854,0.014210,0.002961,-11.600107,-32.905018,-13.904305,,,,,,,
1505914736.730441,-0.145558,1.281782,-0.188557,0.047296,-0.177840,-0.056115,-0.041339,-0.958525,-0.281994,0.050952,0.029082,0.009273,-11.552927,-32.952354,-13.831286,,,,,,,
1505914736.750396,-0.146184,1.282533,-0.191256,0.012996,-0.162002,-0.047657,-0.041410,-0.958739,-0.281256,0.047087,0.021315,0.008078,-11.559565,-32.964634,-13.796439,,,,,,,
1505914736.770355,-0.140407,1.283093,-0.200622,-0.014105,-0.171407,-0.093932,-0.039710,-0.958898,-0.280958,0.048239,-0.013514,0.040037,-11.529822,-33.006905,-13.720055,,,,,,,
1505914736.790345,-0.131956,1.284114,-0.211880,-0.003815,-0.120587,-0.077518,-0.037205,-0.959187,-0.280314,0.055684,0.002598,0.028086,-11.509061,-33.025612,-13.692440,,,,,,,
1505914736.810288,-0.131182,1.284176,-0.214984,-0.004513,-0.104873,-0.028163,-0.036980,-0.959205,-0.280283,0.047448,0.018836,0.015513,-11.446875,-33.060658,-13.659966,,,,,,,
1505914736.830275,-0.127783,1.283358,-0.219977,-0.011341,-0.072044,-0.003378,-0.036128,-0.958973,-0.281186,0.040400,0.032765,-0.020328,-11.462818,-33.067242,-13.630617,,,,,,,
1505914736.850249,-0.128046,1.282995,-0.220600,-0.025227,-0.024185,-0.012811,-0.036246,-0.958870,-0.281521,0.042532,0.026604,-0.027790,-11.433264,-33.065910,-13.658640,,,,,,,
1505914736.870197,-0.126071,1.282303,-0.222339,-0.044509,0.039605,-0.021110,-0.035773,-0.958674,-0.282250,0.047111,0.017725,-0.023765,-11.431724,-33.062943,-13.667112,,,,,,,
1505914736.890181,-0.117509,1.280585,-0.229403,-0.076734,0.078843,-0.013575,-0.033548,-0.958183,-0.284182,0.043680,0.002373,-0.022261,-11.340208,-33.056431,-13.758796,,,,,,,
1505914736.910154,-0.110604,1.278074,-0.234255,-0.103657,0.109566,-0.001774,-0.031851,-0.957462,-0.286797,0.035147,-0.007306,-0.028313,-11.309785,-33.033863,-13.837809,,,,,,,
1505914736.930103,-0.107579,1.275937,-0.234659,-0.101790,0.146724,0.010242,-0.031203,-0.956843,-0.288925,0.031020,-0.010061,-0.031708,-11.256944,-33.020058,-13.913639,,,,,,,
1505914736.950087,-0.101454,1.273694,-0.237392,-0.044355,0.166852,0.019272,-0.029650,-0.956189,-0.291246,0.031252,-0.012958,-0.036925,-11.223434,-32.989475,-14.012897,,,,,,,
1505914736.970048,-0.099598,1.273742,-0.235852,0.033473,0.165924,0.024016,-0.029105,-0.956203,-0.291254,0.027335,-0.004323,-0.018988,-11.139702,-32.965645,-14.135256,,,,,,,
1505914736.990009,-0.098739,1.274707,-0.233297,0.051418,0.163763,0.039104,-0.028763,-0.956485,-0.290361,0.024186,0.006640,-0.012770,-11.139702,-32.965645,-14.135256,,,,,,,
1505914737.009993,-0.098050,1.273600,-0.230787,-0.003136,0.139126,0.054693,-0.028667,-0.956161,-0.291434,-0.012776,0.032821,-0.011331,-11.084456,-32.974125,-14.158894,,,,,,,
1505914737.029962,-0.098659,1.272425,-0.227634,-0.079776,0.109235,0.047628,-0.028955,-0.955817,-0.292534,-0.047003,0.021292,-0.009727,-11.090271,-32.931664,-14.252848,,,,,,,
1505914737.049915,-0.098528,1.270285,-0.225578,-0.110577,0.100709,0.038825,-0.029118,-0.955185,-0.294573,-0.054638,0.004914,-0.008436,-11.090271,-32.931664,-14.252848,,,,,,,
1505914737.069896,-0.103525,1.267985,-0.218885,-0.088143,0.085863,0.039946,-0.030817,-0.954502,-0.296608,-0.042868,-0.012264,-0.015037,-11.140254,-32.857029,-14.385508,,,,,,,
1505914737.089845,-0.107285,1.265861,-0.213853,-0.062381,0.051913,0.035616,-0.032149,-0.953866,-0.298505,-0.033342,0.001321,-0.017810,-11.143551,-32.807407,-14.495775,,,,,,,
1505914737.109821,-0.107971,1.264774,-0.212548,-0.046059,0.014651,0.021592,-0.032465,-0.953539,-0.299514,-0.024450,0.007144,-0.015626,-11.143551,-32.807407,-14.495775,,,,,,,
1505914737.129800,-0.109140,1.264032,-0.211399,-0.028952,-0.011909,0.024748,-0.032892,-0.953316,-0.300179,-0.005957,0.001488,0.003273,-11.199588,-32.750286,-14.581505,,,,,,,
1505914737.149768,-0.112301,1.263869,-0.208610,-0.005503,-0.027834,0.030148,-0.033858,-0.953267,-0.300227,-0.009385,-0.005046,0.006023,-11.232878,-32.738293,-14.582832,,,,,,,
1505914737.169736,-0.114744,1.263841,-0.206903,0.001040,-0.046928,0.023646,-0.034595,-0.953258,-0.300170,-0.008405,-0.005848,0.007949,-11.232878,-32.738293,-14.582832,,,,,,,
1505914737.189705,-0.117168,1.264035,-0.205411,-0.014958,-0.048023,0.023543,-0.035301,-0.953316,-0.299903,0.003273,0.009850,0.006675,-11.275595,-32.729481,-14.569645,,,,,,,
1505914737.209673,-0.116711,1.263638,-0.206422,-0.025654,-0.034218,0.022489,-0.035208,-0.953196,-0.300295,0.016302,0.010554,0.002550,-11.306754,-32.724651,-14.556329,,,,,,,
1505914737.229633,-0.117028,1.262912,-0.206523,-0.028912,-0.024666,0.024667,-0.035384,-0.952977,-0.300970,0.016417,0.007161,-0.002557,-11.302199,-32.722752,-14.564140,,,,,,,
1505914737.249587,-0.115207,1.261808,-0.208518,-0.021480,-0.018276,0.025817,-0.034956,-0.952642,-0.302079,0.011580,-0.005137,-0.012893,-11.296709,-32.712673,-14.591015,,,,,,,
1505914737.269577,-0.114618,1.260896,-0.209270,-0.012913,-0.009872,0.025989,-0.034878,-0.952364,-0.302963,0.011898,-0.009642,-0.015229,-11.294018,-32.694630,-14.633477,,,,,,,
1505914737.289520,-0.114990,1.260490,-0.208728,0.001900,0.007143,0.031534,-0.035035,-0.952240,-0.303334,0.014954,-0.007065,-0.014033,-11.292292,-32.688904,-14.647597,,,,,,,
1505914737.309493,-0.113711,1.260346,-0.209347,0.025244,0.025238,0.037134,-0.034662,-0.952196,-0.303515,0.017817,-0.005324,-0.011182,-11.288989,-32.681286,-14.667121,,,,,,,
1505914737.329481,-0.112638,1.260681,-0.209479,0.040121,0.034827,0.039420,-0.034301,-0.952298,-0.303234,0.015502,-0.008807,-0.009693,-11.270403,-32.685726,-14.671531,,,,,,,
1505914737.349445,-0.114690,1.261437,-0.206505,0.042194,0.041195,0.042683,-0.034841,-0.952529,-0.302448,0.016042,-0.008576,-0.010479,-11.270403,-32.685726,-14.671531,,,,,,,
1505914737.369399,-0.115758,1.261950,-0.204524,0.035828,0.033746,0.041528,-0.035107,-0.952685,-0.301925,0.008664,-0.001676,-0.009247,-11.276526,-32.693806,-14.648807,,,,,,,
1505914737.389385,-0.117986,1.262037,-0.201516,0.027323,0.032675,0.039329,-0.035770,-0.952711,-0.301764,-0.006069,0.000731,-0.000604,-11.291021,-32.689011,-14.648340,,,,,,,
1505914737.409339,-0.120686,1.262359,-0.198052,0.020978,0.032682,0.035009,-0.036548,-0.952809,-0.301362,-0.011166,0.002171,-0.000289,-11.304545,-32.686535,-14.643431,,,,,,,
1505914737.429302,-0.125067,1.262465,-0.193113,0.017871,0.029516,0.028548,-0.037855,-0.952841,-0.301098,-0.019030,0.001029,-0.000842,-11.348350,-32.675453,-14.634286,,,,,,,
1505914737.449289,-0.128523,1.262718,-0.189321,0.022307,0.015748,0.018855,-0.038865,-0.952918,-0.300727,-0.013259,-0.001611,-0.000054,-11.388543,-32.665432,-14.625421,,,,,,,
1505914737.469257,-0.130483,1.263175,-0.187203,0.024550,0.003020,0.013438,-0.039397,-0.953056,-0.300219,-0.011155,-0.001808,0.001910,-11.404260,-32.663174,-14.618219,,,,,,,
1505914737.489207,-0.134145,1.264323,-0.183689,0.027824,-0.006528,0.010190,-0.040350,-0.953404,-0.298988,-0.006464,-0.003841,0.010917,-11.446585,-32.668270,-14.573678,,,,,,,
1505914737.509193,-0.136449,1.265480,-0.181616,0.035253,-0.016107,0.015532,-0.040889,-0.953752,-0.297801,-0.005529,-0.005294,0.010280,-11.465798,-32.680485,-14.531130,,,,,,,
1505914737.529132,-0.138997,1.266338,-0.179381,0.036274,-0.019315,0.019804,-0.041534,-0.954010,-0.296885,-0.007355,-0.004105,0.008921,-11.465798,-32.680485,-14.531130,,,,,,,
1505914737.549117,-0.142590,1.267634,-0.176208,0.051144,-0.020374,0.025242,-0.042425,-0.954397,-0.295510,-0.001109,-0.000589,0.007317,-11.508837,-32.694534,-14.465357,,,,,,,
1505914737.569097,-0.145503,1.269264,-0.173617,0.065049,-0.012885,0.021087,-0.043060,-0.954882,-0.293846,-0.002518,-0.003034,0.011955,-11.542329,-32.709576,-14.404539,,,,,,,
1505914737.589060,-0.147372,1.270858,-0.171863,0.064013,-0.008619,0.017893,-0.043385,-0.955355,-0.292259,0.003926,-0.004423,0.013008,-11.558716,-32.726265,-14.353398,,,,,,,
1505914737.609023,-0.150371,1.272606,-0.169128,0.051210,-0.021418,0.020953,-0.044011,-0.955870,-0.290476,-0.006297,-0.012560,0.007150,-11.580231,-32.758816,-14.261506,,,,,,,
1505914737.629001,-0.153848,1.273574,-0.166132,0.043736,-0.028885,0.023006,-0.044879,-0.956154,-0.289406,-0.012463,-0.013039,0.003228,-11.600908,-32.767380,-14.224981,,,,,,,
1505914737.648944,-0.158152,1.274520,-0.162455,0.056640,-0.034146,0.016628,-0.045982,-0.956430,-0.288317,-0.024239,-0.007239,0.001482,-11.652677,-32.769653,-14.177349,,,,,,,
1505914737.668929,-0.163371,1.275841,-0.158106,0.077027,-0.044707,0.010263,-0.047280,-0.956815,-0.286826,-0.015860,-0.007449,0.000800,-11.695204,-32.782402,-14.112719,,,,,,,
1505914737.688904,-0.167337,1.277697,-0.155212,0.089967,-0.057404,0.002769,-0.048122,-0.957353,-0.284885,-0.007573,-0.007735,0.003361,-11.736064,-32.799759,-14.038267,,,,,,,
1505914737.708873,-0.169996,1.279561,-0.153832,0.090203,-0.068132,-0.003575,-0.048577,-0.957890,-0.282997,-0.005103,-0.003399,0.001488,-11.750854,-32.812187,-13.996794,,,,,,,
1505914737.728835,-0.172038,1.281139,-0.153280,0.087065,-0.079822,-0.005806,-0.048896,-0.958342,-0.281408,0.004752,0.005629,-0.006495,-11.783877,-32.849731,-13.880484,,,,,,,
1505914737.748785,-0.173840,1.282651,-0.153064,0.083814,-0.081975,-0.001555,-0.049152,-0.958773,-0.279892,0.007389,0.006960,-0.008423,-11.795432,-32.867268,-13.829060,,,,,,,
1505914737.768768,-0.175636,1.284031,-0.152875,0.076298,-0.085199,0.002664,-0.049424,-0.959164,-0.278500,0.010835,0.012035,-0.008609,-11.803964,-32.888695,-13.770717,,,,,,,
1505914737.788745,-0.175630,1.285131,-0.154371,0.053770,-0.082095,0.011113,-0.049238,-0.959474,-0.277461,0.019987,0.003237,-0.000035,-11.824496,-32.912197,-13.696752,,,,,,,
1505914737.808713,-0.176370,1.285971,-0.155034,0.031223,-0.076869,0.020646,-0.049302,-0.959711,-0.276631,0.013520,-0.006598,-0.002758,-11.826095,-32.930710,-13.650797,,,,,,,
1505914737.828681,-0.178546,1.286402,-0.154218,0.028045,-0.070481,0.017451,-0.049830,-0.959832,-0.276116,0.011500,-0.004066,-0.006126,-11.832582,-32.935631,-13.633284,,,,,,,
1505914737.848649,-0.178829,1.286717,-0.155025,0.032326,-0.056631,0.013274,-0.049854,-0.959920,-0.275804,0.014637,-0.000209,-0.008940,-11.858742,-32.943836,-13.590672,,,,,,,
1505914737.868617,-0.178067,1.287087,-0.156720,0.027157,-0.052427,0.008003,-0.049581,-0.960024,-0.275493,0.016515,-0.006651,-0.008962,-11.855587,-32.952927,-13.571370,,,,,,,
1505914737.888585,-0.178604,1.287355,-0.157082,0.015422,-0.048193,0.006886,-0.049684,-0.960099,-0.275213,0.014955,-0.009430,-0.010035,-11.852147,-32.957672,-13.562845,,,,,,,
1505914737.908554,-0.178276,1.287352,-0.158238,0.018718,-0.042830,-0.001631,-0.049594,-0.960098,-0.275231,0.004092,-0.008499,-0.012321,-11.855533,-32.964878,-13.542361,,,,,,,
1505914737.928493,-0.178603,1.287706,-0.158651,0.031557,-0.036405,-0.005800,-0.049623,-0.960197,-0.274881,0.003771,-0.004403,-0.012228,-11.854506,-32.964550,-13.544057,,,,,,,
1505914737.948490,-0.177460,1.288068,-0.160338,0.036814,-0.030035,-0.001447,-0.049248,-0.960298,-0.274595,0.011864,0.001924,-0.009035,-11.854153,-32.975590,-13.517470,,,,,,,
1505914737.968458,-0.175815,1.288522,-0.162260,0.029151,-0.017348,0.010361,-0.048720,-0.960424,-0.274247,0.018538,0.005194,-0.005340,-11.842114,-32.988873,-13.495589,,,,,,,
1505914737.988425,-0.177493,1.288918,-0.160764,0.020454,-0.005716,0.020018,-0.049113,-0.960535,-0.273790,0.018610,0.008829,-0.005888,-11.837343,-32.994591,-13.485798,,,,,,,
1505914738.008394,-0.177245,1.289029,-0.160776,0.018187,0.010197,0.026525,-0.049026,-0.960565,-0.273698,0.022369,0.009775,-0.009063,-11.848602,-32.995243,-13.474312,,,,,,,
1505914738.028334,-0.175601,1.288969,-0.161698,0.023508,0.030323,0.032114,-0.048586,-0.960549,-0.273834,0.017382,0.001992,-0.009201,-11.834574,-32.996960,-13.482428,,,,,,,
1505914738.048330,-0.177289,1.289361,-0.159117,0.025611,0.045216,0.031146,-0.048982,-0.960658,-0.273381,0.014588,-0.001378,-0.009044,-11.828350,-32.998039,-13.485253,,,,,,,
1505914738.068286,-0.176803,1.289703,-0.158327,0.025499,0.059012,0.036581,-0.048791,-0.960753,-0.273081,0.009042,-0.006624,-0.002920,-11.825322,-32.999409,-13.484557,,,,,,,
1505914738.088240,-0.178472,1.290172,-0.155159,0.023297,0.077075,0.037748,-0.049167,-0.960883,-0.272556,-0.001309,-0.007165,0.002354,-11.826485,-32.999508,-13.483298,,,,,,,
1505914738.108233,-0.180640,1.290875,-0.151285,0.023335,0.083474,0.033504,-0.049636,-0.961077,-0.271784,-0.006272,-0.003782,0.007227,-11.832724,-33.000374,-13.475695,,,,,,,
1505914738.128200,-0.184108,1.291515,-0.146304,0.021354,0.070752,0.024850,-0.050466,-0.961254,-0.271006,-0.018046,-0.000325,0.009669,-11.837654,-33.000660,-13.470659,,,,,,,
1505914738.148168,-0.187071,1.291930,-0.142273,0.022640,0.045289,0.013996,-0.051195,-0.961368,-0.270464,-0.026595,0.001468,0.007997,-11.858995,-32.998856,-13.456303,,,,,,,
1505914738.168119,-0.190838,1.292524,-0.137888,0.014317,0.031511,0.001015,-0.052105,-0.961531,-0.269708,-0.038212,-0.001802,0.017709,-11.878501,-32.996708,-13.444357,,,,,,,
1505914738.188105,-0.190000,1.292677,-0.138365,0.000867,0.007046,-0.015211,-0.051851,-0.961573,-0.269607,-0.039641,-0.004857,0.020553,-11.909474,-32.993320,-13.425255,,,,,,,
1505914738.208074,-0.188590,1.292661,-0.140231,-0.008420,-0.036496,-0.029452,-0.051474,-0.961569,-0.269695,-0.048578,-0.005441,0.018581,-11.892578,-32.999271,-13.425608,,,,,,,
1505914738.228042,-0.187606,1.292422,-0.142532,-0.021119,-0.075863,-0.028694,-0.051251,-0.961504,-0.269971,-0.050739,0.005250,0.016492,-11.887286,-33.002277,-13.422910,,,,,,,
1505914738.248009,-0.187297,1.291952,-0.144750,-0.032851,-0.100363,-0.023557,-0.051252,-0.961374,-0.270432,-0.049975,0.008402,0.015915,-11.890067,-33.002243,-13.420522,,,,,,,
1505914738.267977,-0.196132,1.291916,-0.138623,-0.044529,-0.118462,-0.023730,-0.053645,-0.961364,-0.270001,-0.031285,0.004043,0.020703,-11.950710,-32.989960,-13.396845,,,,,,,
1505914738.287934,-0.197970,1.291400,-0.139484,-0.058320,-0.130170,-0.027094,-0.054240,-0.961222,-0.270389,-0.013769,-0.001333,0.017383,-11.997509,-32.981426,-13.376005,,,,,,,
1505914738.307914,-0.198399,1.290754,-0.141854,-0.057206,-0.131216,-0.030307,-0.054478,-0.961044,-0.270974,-0.002697,-0.003907,0.014123,-12.032051,-32.979221,-13.350391,,,,,,,
1505914738.327864,-0.195347,1.290893,-0.147321,-0.046622,-0.116325,-0.026944,-0.053624,-0.961082,-0.271008,0.018972,-0.011956,0.012402,-12.036342,-32.980087,-13.344385,,,,,,,
1505914738.347830,-0.195296,1.290215,-0.149421,-0.037091,-0.086614,-0.020236,-0.053737,-0.960895,-0.271650,0.025035,-0.007703,0.012220,-12.025847,-32.988537,-13.332964,,,,,,,
1505914738.367817,-0.195144,1.289568,-0.151027,-0.035145,-0.056877,-0.012549,-0.053816,-0.960715,-0.272268,0.026762,-0.003732,0.010885,-12.036045,-32.983189,-13.336983,,,,,,,
1505914738.387785,-0.191242,1.289365,-0.155582,-0.033129,-0.027115,-0.010218,-0.052791,-0.960659,-0.272668,0.032390,0.001995,0.008645,-12.041938,-32.975376,-13.350983,,,,,,,
1505914738.407744,-0.190270,1.288773,-0.156992,-0.032016,-0.014325,-0.016560,-0.052633,-0.960494,-0.273277,0.016271,0.003829,0.012688,-12.005460,-32.985714,-13.358302,,,,,,,
1505914738.427722,-0.188321,1.288343,-0.159162,-0.054391,-0.004781,-0.020921,-0.052178,-0.960375,-0.273785,0.004509,0.008867,0.014431,-11.997732,-32.980339,-13.378489,,,,,,,
1505914738.447689,-0.186861,1.286952,-0.160665,-0.092849,0.012152,-0.021048,-0.052026,-0.959986,-0.275174,-0.007972,0.021311,0.011181,-11.976066,-32.971050,-13.420738,,,,,,,
1505914738.467652,-0.185892,1.284465,-0.161376,-0.120395,0.032386,-0.040365,-0.052200,-0.959287,-0.277569,-0.012726,0.050961,0.005535,-11.986858,-32.949055,-13.465037,,,,,,,
1505914738.487626,-0.179042,1.281940,-0.167970,-0.151745,0.020851,-0.087745,-0.050729,-0.958570,-0.280302,-0.020560,0.062483,-0.000414,-11.976356,-32.922367,-13.539469,,,,,,,
1505914738.507593,-0.169916,1.279040,-0.176766,-0.174107,0.052724,-0.094087,-0.048639,-0.957740,-0.283492,-0.028403,0.032463,-0.000031,-11.878847,-32.891140,-13.700308,,,,,,,
1505914738.527551,-0.163039,1.275415,-0.182134,-0.201549,0.116251,-0.049957,-0.047251,-0.956691,-0.287244,-0.006551,-0.028584,0.001538,-11.838277,-32.864052,-13.800061,,,,,,,
1505914738.547530,-0.156924,1.271646,-0.186331,-0.183707,0.087446,-0.021108,-0.046057,-0.955587,-0.291087,-0.005899,-0.061915,-0.018834,-11.790265,-32.831276,-13.918665,,,,,,,
1505914738.567498,-0.153086,1.268858,-0.188848,-0.095344,0.069464,-0.002482,-0.045346,-0.954762,-0.293893,0.000683,-0.038784,-0.020483,-11.730817,-32.765213,-14.123067,,,,,,,
1505914738.587464,-0.151649,1.268176,-0.188760,0.000473,0.080226,0.011008,-0.045022,-0.954559,-0.294603,-0.001975,0.006271,0.005616,-11.716180,-32.750134,-14.170116,,,,,,,
1505914738.607434,-0.152490,1.270410,-0.186240,0.026875,0.082309,0.031526,-0.044945,-0.955222,-0.292455,0.002709,0.011359,0.059805,-11.705115,-32.748104,-14.183945,,,,,,,
1505914738.627402,-0.152976,1.270104,-0.184062,-0.036052,0.071547,0.032156,-0.045132,-0.955132,-0.292722,-0.008411,-0.036064,0.116132,-11.698918,-32.774906,-14.127043,,,,,,,
1505914738.647370,-0.159004,1.272955,-0.177740,-0.077213,-0.011396,0.017490,-0.046464,-0.955972,-0.289756,-0.054396,-0.102530,0.123694,-11.741049,-32.798729,-14.036502,,,,,,,
1505914738.667337,-0.159249,1.271618,-0.178868,-0.061509,-0.093041,-0.022534,-0.046738,-0.955579,-0.291006,-0.077011,-0.120150,0.112814,-11.741049,-32.798729,-14.036502,,,,,,,
1505914738.687306,-0.168214,1.273694,-0.172689,-0.044390,-0.102168,-0.102788,-0.049013,-0.956189,-0.288618,-0.103041,-0.093723,0.065169,-8.639371,-33.013840,-14.595417,,,,,,,
1505914738.707258,-0.158641,1.273637,-0.185082,-0.020281,-0.123862,-0.227008,-0.046256,-0.956172,-0.289129,-0.065026,-0.046651,0.049688,-8.573596,-33.028034,-14.602089,,,,,,,
1505914738.727242,-0.144915,1.276220,-0.202366,0.010977,-0.122244,-0.331764,-0.041927,-0.956925,-0.287292,-0.025975,-0.031722,0.049178,-8.573596,-33.028034,-14.602089,,,,,,,
1505914738.747210,-0.125670,1.277669,-0.225155,0.034541,-0.139192,-0.334938,-0.036217,-0.957345,-0.286669,0.030647,-0.001517,0.047182,-8.361361,-33.123440,-14.508753,,,,,,,
1505914738.767178,-0.104682,1.281046,-0.250422,0.032416,-0.196667,-0.322450,-0.029855,-0.958315,-0.284149,0.032601,0.027926,0.076004,-8.055715,-33.254574,-14.381142,,,,,,,
1505914738.787128,-0.087822,1.281921,-0.272554,-0.000649,-0.218016,-0.318492,-0.024986,-0.958565,-0.283777,0.026817,0.022881,0.089166,-8.055715,-33.254574,-14.381142,,,,,,,
1505914738.807104,-0.067407,1.284680,-0.297616,-0.039067,-0.169144,-0.328069,-0.019010,-0.959347,-0.281588,0.021390,0.004040,0.088656,-7.828109,-33.336075,-14.318009,,,,,,,
1505914738.827082,-0.048133,1.283981,-0.320771,-0.059543,-0.139419,-0.320522,-0.013612,-0.959150,-0.282571,0.017838,-0.004641,0.052255,-7.543159,-33.438461,-14.231956,,,,,,,
1505914738.847039,-0.027965,1.284678,-0.344537,-0.031982,-0.135172,-0.307482,-0.007892,-0.959347,-0.282120,0.011462,-0.002384,0.043214,-7.456557,-33.453949,-14.241189,,,,,,,
1505914738.867017,-0.010468,1.285072,-0.365097,0.044320,-0.091567,-0.277847,-0.002950,-0.959458,-0.281837,0.008840,-0.010147,0.058738,-7.270053,-33.512276,-14.200432,,,,,,,
1505914738.886986,0.007762,1.289317,-0.385087,0.105396,-0.042778,-0.226854,0.002156,-0.960645,-0.277769,0.021327,-0.034228,0.059263,-7.008960,-33.632389,-14.046905,,,,,,,
1505914738.906954,0.020911,1.291490,-0.399694,0.109209,-0.051446,-0.190470,0.005764,-0.961247,-0.275629,0.013248,-0.029567,0.049738,-6.909631,-33.677860,-13.987042,,,,,,,
1505914738.926922,0.032444,1.294390,-0.413019,0.095146,-0.070702,-0.171393,0.008852,-0.962042,-0.272757,-0.001604,-0.007333,0.026602,-6.824076,-33.720238,-13.926817,,,,,,,
1505914738.946890,0.042659,1.296047,-0.425290,0.086491,-0.082469,-0.159735,0.011570,-0.962493,-0.271059,-0.007084,0.017089,0.042132,-6.680957,-33.807831,-13.783111,,,,,,,
1505914738.966857,0.051775,1.299035,-0.436409,0.069288,-0.074039,-0.151218,0.013892,-0.963300,-0.268069,-0.007620,0.020917,0.051913,-6.617933,-33.840496,-13.733261,,,,,,,
1505914738.986801,0.061911,1.301662,-0.448307,0.029641,-0.070921,-0.140738,0.016452,-0.964001,-0.265388,0.000959,0.012891,0.058936,-6.564056,-33.889999,-13.636700,,,,,,,
1505914739.006776,0.071039,1.303160,-0.459412,-0.012078,-0.093396,-0.127201,0.018771,-0.964399,-0.263786,0.005048,0.001188,0.048606,-6.465018,-33.949345,-13.536036,,,,,,,
1505914739.026762,0.079016,1.303934,-0.469888,-0.018409,-0.119993,-0.126329,0.020815,-0.964603,-0.262883,0.004865,0.001102,0.040959,-6.397039,-33.985378,-13.477780,,,,,,,
1505914739.046731,0.093090,1.307245,-0.486600,-0.001204,-0.132687,-0.132734,0.024216,-0.965471,-0.259383,0.020782,-0.006010,0.039580,-6.290047,-34.060062,-13.338898,,,,,,,
1505914739.066682,0.105501,1.309458,-0.502309,0.003059,-0.175254,-0.122259,0.027208,-0.966045,-0.256937,0.020247,-0.022282,0.037638,-6.188574,-34.119160,-13.234921,,,,,,,
1505914739.086666,0.109735,1.309132,-0.510706,-0.009915,-0.203013,-0.103227,0.028330,-0.965961,-0.257133,0.015432,-0.026578,0.037711,-6.141789,-34.150482,-13.175791,,,,,,,
1505914739.106634,0.112778,1.308632,-0.518108,-0.014264,-0.204115,-0.096834,0.029167,-0.965831,-0.257525,0.013985,-0.033833,0.041964,-6.122655,-34.162060,-13.154671,,,,,,,
1505914739.126602,0.119854,1.310143,-0.529224,-0.000469,-0.191345,-0.093464,0.030814,-0.966222,-0.255863,0.037225,-0.034251,0.064548,-6.079483,-34.201656,-13.071545,,,,,,,
1505914739.146570,0.122380,1.310119,-0.535750,0.014238,-0.190333,-0.076234,0.031463,-0.966216,-0.255807,0.049638,-0.029313,0.068902,-6.070470,-34.210560,-13.052411,,,,,,,
1505914739.166539,0.131015,1.312274,-0.548314,0.007506,-0.213882,-0.045364,0.033399,-0.966769,-0.253461,0.056399,-0.014234,0.071134,-6.069077,-34.219856,-13.028666,,,,,,,
1505914739.186502,0.127832,1.312060,-0.549920,-0.020621,-0.249198,-0.008261,0.032618,-0.966714,-0.253771,0.040823,0.023736,0.091006,-6.032086,-34.269493,-12.914883,,,,,,,
1505914739.206474,0.128017,1.313808,-0.555138,-0.057161,-0.274912,0.018135,0.032449,-0.967160,-0.252089,0.039176,0.036587,0.096266,-6.076203,-34.266430,-12.902329,,,,,,,
1505914739.226442,0.119673,1.312240,-0.552582,-0.095550,-0.304782,0.023080,0.030526,-0.966760,-0.253856,0.029045,0.062005,0.112346,-6.106405,-34.294365,-12.813539,,,,,,,
1505914739.246410,0.115811,1.313676,-0.554673,-0.114495,-0.306860,0.004747,0.029385,-0.967126,-0.252593,0.014378,0.037759,0.138518,-6.217944,-34.304333,-12.732970,,,,,,,
1505914739.266378,0.109533,1.311087,-0.554401,-0.139808,-0.300421,-0.018927,0.028072,-0.966465,-0.255260,0.015217,0.010273,0.141994,-6.217944,-34.304333,-12.732970,,,,,,,
1505914739.286346,0.107508,1.312290,-0.558621,-0.158947,-0.340884,-0.013931,0.027430,-0.966773,-0.254161,0.020223,-0.025247,0.133067,-6.323185,-34.256672,-12.809225,,,,,,,
1505914739.306314,0.098524,1.309354,-0.557500,-0.134440,-0.429181,0.008173,0.025425,-0.966018,-0.257221,0.020611,-0.020630,0.140400,-6.424297,-34.259415,-12.751450,,,,,,,
1505914739.326282,0.089279,1.311807,-0.557695,-0.065191,-0.514224,0.035920,0.022834,-0.966649,-0.255084,0.014977,-0.008830,0.146030,-6.518161,-34.235085,-12.769143,,,,,,,
1505914739.346250,0.074677,1.311357,-0.554072,-0.018243,-0.563085,0.046616,0.019140,-0.966534,-0.255824,0.040614,0.028927,0.189524,-6.705763,-34.270653,-12.575116,,,,,,,
1505914739.366218,0.068835,1.310857,-0.558575,-0.263081,-0.543164,0.000286,0.017678,-0.966406,-0.256413,0.046287,-0.061716,0.032323,-6.802154,-34.287224,-12.477797,,,,,,,
1505914739.386186,0.062422,1.302390,-0.563827,-0.455056,-0.511901,-0.174171,0.016543,-0.964195,-0.264679,-0.038440,-0.172814,-0.005112,-6.894894,-34.225880,-12.594760,,,,,,,
1505914739.406152,0.077253,1.293968,-0.580690,-0.370446,0.171272,-0.269146,0.021093,-0.961927,-0.272491,0.186137,-0.343310,-0.140000,-6.815289,-34.124611,-12.908966,,,,,,,
1505914739.426122,0.099423,1.288534,-0.598576,-0.145599,0.249320,-0.265189,0.027647,-0.960428,-0.277154,0.172289,-0.300498,-0.109138,-6.570824,-34.081387,-13.147694,,,,,,,
1505914739.446066,0.117762,1.289242,-0.612845,0.153732,0.216382,-0.140436,0.032644,-0.960625,-0.275925,0.140329,-0.265434,-0.056320,-6.451654,-34.084499,-13.198539,,,,,,,
1505914739.466048,0.126215,1.292881,-0.617347,0.178452,0.193385,0.012722,0.034535,-0.961630,-0.272169,0.052577,0.062551,-0.029742,-6.245645,-34.163322,-13.093426,,,,,,,
1505914739.486009,0.127044,1.295452,-0.615409,0.090764,0.092031,0.050142,0.034448,-0.962332,-0.269687,0.063910,0.140142,-0.072751,-6.235186,-34.174580,-13.069012,,,,,,,
1505914739.505970,0.122814,1.296648,-0.610950,0.034310,-0.050664,0.074647,0.033166,-0.962656,-0.268688,0.059486,0.151209,-0.163395,-6.245152,-34.206280,-12.981030,,,,,,,
1505914739.525936,0.127152,1.297665,-0.616730,0.050519,-0.083172,-0.014350,0.034207,-0.962931,-0.267570,-0.153774,0.023188,-0.152367,-6.238757,-34.227448,-12.928197,,,,,,,
1505914739.545930,0.131365,1.298810,-0.619559,0.056054,0.204950,-0.012579,0.035189,-0.963239,-0.266331,-0.172701,-0.010821,-0.153652,-6.229454,-34.241753,-12.894756,,,,,,,
1505914739.565893,0.136203,1.299080,-0.616473,-0.026870,0.451041,0.071945,0.036442,-0.963312,-0.265900,-0.150379,-0.005698,-0.190536,-6.184177,-34.253128,-12.886333,,,,,,,
1505914739.585855,0.136445,1.297700,-0.609053,-0.106633,0.296650,0.086601,0.036687,-0.962940,-0.267208,-0.066487,0.110905,-0.241093,-6.100101,-34.224941,-13.000797,,,,,,,
1505914739.605834,0.131945,1.296020,-0.601103,-0.073223,0.076531,0.110106,0.035697,-0.962486,-0.268973,-0.044211,0.126991,-0.233026,-6.097852,-34.195545,-13.078961,,,,,,,
1505914739.625782,0.120271,1.296831,-0.589589,0.085168,-0.080870,0.189356,0.032461,-0.962706,-0.268597,-0.023458,0.047773,-0.211445,-6.139443,-34.171551,-13.122154,,,,,,,
1505914739.645765,0.101414,1.301662,-0.572083,0.291541,-0.090630,0.319048,0.026920,-0.964001,-0.264531,-0.014087,-0.144580,-0.167537,-6.379947,-34.177971,-12.990041,,,,,,,
1505914739.665723,0.070281,1.309660,-0.539757,0.376696,0.079679,0.539062,0.018130,-0.966097,-0.257541,-0.011859,-0.143766,-0.144421,-6.582882,-34.205452,-12.815269,,,,,,,
1505914739.685688,0.030371,1.316759,-0.494201,0.280251,0.275846,0.608211,0.007631,-0.967906,-0.251197,-0.034472,-0.005956,-0.098641,-6.841765,-34.222759,-12.632164,,,,,,,
1505914739.705672,-0.008134,1.320707,-0.447348,0.138528,0.369280,0.573656,-0.002013,-0.968890,-0.247482,-0.022676,0.208484,-0.068558,-7.348693,-34.193256,-12.425641,,,,,,,
1505914739.725643,-0.045772,1.321891,-0.401477,0.040741,0.304293,0.559828,-0.011272,-0.969183,-0.246085,0.003963,0.251257,-0.068841,-7.648109,-34.132607,-12.411682,,,,,,,
1505914739.745594,-0.083684,1.321030,-0.357976,-0.037240,0.156547,0.518844,-0.020661,-0.968970,-0.246312,0.001190,0.239005,-0.064585,-7.802693,-34.093307,-12.423480,,,,,,,
1505914739.765578,-0.117241,1.318308,-0.321381,-0.123382,0.077032,0.434314,-0.029221,-0.968294,-0.248099,-0.091125,0.142259,-0.063439,-8.262959,-33.953724,-12.507869,,,,,,,
1505914739.785547,-0.144285,1.313991,-0.291643,-0.183581,0.094158,0.383722,-0.036520,-0.967206,-0.251352,-0.128549,0.076810,-0.081503,-8.521648,-33.846825,-12.623481,,,,,,,
1505914739.805500,-0.166844,1.309445,-0.265567,-0.148281,0.157055,0.362893,-0.042910,-0.966042,-0.254799,-0.131070,0.042503,-0.093743,-8.636751,-33.790901,-12.694880,,,,,,,
1505914739.825483,-0.204257,1.301608,-0.224382,-0.007553,0.171141,0.367047,-0.053945,-0.963987,-0.260421,-0.100108,-0.005038,-0.100465,-8.945039,-33.647381,-12.861514,,,,,,,
1505914739.845451,-0.227759,1.301952,-0.196522,0.155990,0.156679,0.347589,-0.059975,-0.964079,-0.258757,-0.084114,0.000929,-0.089540,-9.268105,-33.503017,-13.008787,,,,,,,
1505914739.865419,-0.251396,1.304521,-0.168957,0.230087,0.146357,0.313699,-0.065458,-0.964758,-0.254869,-0.045840,0.005270,-0.042830,-9.456635,-33.482395,-12.925932,,,,,,,
1505914739.885387,-0.273411,1.306964,-0.142771,0.185462,0.179325,0.292211,-0.070416,-0.965398,-0.251096,0.000027,0.027547,0.010984,-9.664997,-33.479195,-12.779272,,,,,,,
1505914739.905355,-0.291413,1.308019,-0.119754,0.104661,0.231414,0.258842,-0.074632,-0.965672,-0.248812,0.010590,0.048405,0.019319,-9.771393,-33.469078,-12.724751,,,,,,,
1505914739.925323,-0.303773,1.308177,-0.101678,0.067992,0.266701,0.199932,-0.077655,-0.965713,-0.247724,0.008976,0.092773,0.018919,-9.879377,-33.444973,-12.704722,,,,,,,
1505914739.945291,-0.311526,1.308442,-0.087863,0.067516,0.286068,0.150782,-0.079495,-0.965782,-0.246871,-0.023593,0.094810,0.034209,-9.948603,-33.420368,-12.715449,,,,,,,
1505914739.965234,-0.316887,1.308786,-0.076391,0.052845,0.287197,0.130352,-0.080714,-0.965871,-0.246126,-0.028783,0.085988,0.044131,-9.966278,-33.411720,-12.724340,,,,,,,
1505914739.985227,-0.320243,1.308520,-0.067012,0.008271,0.279741,0.113976,-0.081620,-0.965802,-0.246097,-0.045913,0.080747,0.042255,-9.978319,-33.398254,-12.750226,,,,,,,
1505914740.005195,-0.341254,1.304961,-0.040986,-0.028751,0.276588,0.090191,-0.087923,-0.964873,-0.247566,-0.074553,0.062224,0.003868,-9.980110,-33.370644,-12.820921,,,,,,,
1505914740.025163,-0.339962,1.303919,-0.036264,-0.020003,0.304353,0.067920,-0.087938,-0.964599,-0.248627,-0.081419,0.043899,-0.006836,-10.171499,-33.284779,-12.893511,,,,,,,
1505914740.045131,-0.338225,1.303666,-0.031366,0.027947,0.333163,0.066239,-0.087587,-0.964532,-0.249009,-0.071745,0.007150,-0.015486,-10.136734,-33.267536,-12.965191,,,,,,,
1505914740.065099,-0.337859,1.304152,-0.024370,0.065959,0.366091,0.089155,-0.087340,-0.964661,-0.248599,-0.028260,-0.005798,0.005222,-10.084696,-33.261940,-13.020023,,,,,,,
1505914740.085068,-0.339325,1.306189,-0.015144,0.077336,0.374640,0.111750,-0.087051,-0.965195,-0.246618,0.007217,0.005600,0.019277,-10.053548,-33.261089,-13.046251,,,,,,,
1505914740.105035,-0.342405,1.306613,-0.004276,0.057813,0.368101,0.137297,-0.087672,-0.965306,-0.245963,0.018764,0.017125,0.020698,-10.027607,-33.280087,-13.017737,,,,,,,
1505914740.125003,-0.347387,1.306062,0.008425,0.013450,0.367791,0.184153,-0.089078,-0.965162,-0.246023,-0.014774,0.027128,0.023809,-10.028677,-33.256256,-13.077671,,,,,,,
1505914740.144972,-0.371077,1.305502,0.039710,-0.018239,0.394064,0.235537,-0.095076,-0.965015,-0.244348,-0.052217,-0.006237,0.037332,-10.066044,-33.214718,-13.154306,,,,,,,
1505914740.164938,-0.379094,1.303411,0.057188,-0.001754,0.475838,0.261832,-0.097779,-0.964465,-0.245452,-0.054092,-0.022947,0.052260,-10.225172,-33.185299,-13.105742,,,,,,,
1505914740.184907,-0.388504,1.301855,0.077741,0.048783,0.539556,0.298932,-0.100653,-0.964053,-0.245910,0.000662,-0.063413,0.080916,-10.297971,-33.106113,-13.248230,,,,,,,
1505914740.204875,-0.405511,1.302355,0.106351,0.074454,0.540313,0.375128,-0.104630,-0.964185,-0.243719,-0.021042,-0.042101,0.090552,-10.370141,-33.055717,-13.317595,,,,,,,
1505914740.224844,-0.422837,1.300285,0.136500,0.058592,0.636801,0.423809,-0.109655,-0.963634,-0.243689,-0.038767,-0.028996,0.103522,-10.370141,-33.055717,-13.317595,,,,,,,
1505914740.244812,-0.436365,1.297417,0.164884,-0.021105,0.681454,0.389330,-0.114109,-0.962864,-0.244687,-0.094097,-0.003307,0.084363,-10.555668,-32.963997,-13.398922,,,,,,,
1505914740.264777,-0.440909,1.291071,0.183095,-0.234533,0.678196,0.311997,-0.117826,-0.961131,-0.249688,-0.092746,-0.053059,-0.036720,-10.625834,-32.867031,-13.580437,,,,,,,
1505914740.284748,-0.445912,1.285733,0.199746,-0.092481,0.385859,0.365703,-0.121284,-0.959644,-0.253720,-0.087197,-0.226483,0.016232,-10.662975,-32.739388,-13.856834,,,,,,,
1505914740.304713,-0.464179,1.277956,0.221570,-0.319172,0.044653,0.479026,-0.129236,-0.957428,-0.258128,-0.340949,-0.141724,-0.127706,-10.895359,-32.579712,-14.051051,,,,,,,
1505914740.324674,-0.478552,1.267463,0.239132,-0.298810,0.169247,0.444557,-0.137551,-0.954346,-0.265147,-0.305793,-0.076293,-0.133183,-10.970070,-32.531139,-14.105358,,,,,,,
1505914740.344632,-0.489667,1.261537,0.254040,-0.097832,0.151397,0.257160,-0.143147,-0.952559,-0.268588,-0.129955,-0.105455,-0.062268,-11.342049,-32.254543,-14.442326,,,,,,,
1505914740.364607,-0.494835,1.258975,0.260949,-0.052694,-0.014726,0.107563,-0.145692,-0.951776,-0.269992,0.021439,-0.110129,-0.010831,-11.471916,-32.162212,-14.545298,,,,,,,
1505914740.384584,-0.496396,1.257853,0.260130,-0.068493,-0.143767,-0.041104,-0.146621,-0.951432,-0.270703,-0.027665,-0.020446,0.008801,-11.490253,-32.152222,-14.552913,,,,,,,
1505914740.404529,-0.489606,1.256538,0.251984,-0.137737,0.024287,-0.086556,-0.145368,-0.951026,-0.272797,-0.025484,-0.005014,-0.065857,-11.532169,-32.129711,-14.569465,,,,,,,
1505914740.424524,-0.481181,1.255551,0.244734,-0.052780,0.070081,-0.066495,-0.143499,-0.950720,-0.274843,0.026190,-0.028284,-0.177763,-11.441599,-32.105976,-14.692671,,,,,,,
1505914740.444490,-0.480936,1.256638,0.243589,0.092430,-0.123286,-0.031450,-0.142954,-0.951057,-0.273962,0.057154,-0.019173,-0.243509,-11.425798,-32.105900,-14.705130,,,,,,,
1505914740.464435,-0.487082,1.259309,0.245549,0.144156,-0.252841,-0.041561,-0.143445,-0.951879,-0.270832,0.072766,-0.003657,-0.246624,-11.419256,-32.137177,-14.641750,,,,,,,
1505914740.484428,-0.492060,1.262064,0.245132,0.091513,-0.260146,-0.093327,-0.143552,-0.952719,-0.267803,0.034406,0.054282,-0.204747,-11.480405,-32.212215,-14.427473,,,,,,,
1505914740.504396,-0.491436,1.264173,0.240375,0.050884,-0.155959,-0.110077,-0.142437,-0.953358,-0.266120,0.090160,0.110478,-0.212320,-11.484113,-32.224152,-14.397843,,,,,,,
1505914740.524364,-0.490947,1.266471,0.237270,0.102778,-0.127257,-0.087103,-0.141273,-0.954049,-0.264257,0.141517,0.112176,-0.210368,-11.451764,-32.288002,-14.280068,,,,,,,
1505914740.544333,-0.490772,1.269465,0.234088,0.100294,-0.149356,-0.136516,-0.139880,-0.954942,-0.261761,0.114581,0.052690,-0.167758,-11.420271,-32.353500,-14.156517,,,,,,,
1505914740.564302,-0.484853,1.272448,0.224299,0.034575,-0.190462,-0.241041,-0.137000,-0.955823,-0.260063,0.049887,0.006940,-0.142311,-11.376329,-32.399387,-14.086782,,,,,,,
1505914740.584269,-0.468781,1.274854,0.203026,-0.084006,-0.217666,-0.385424,-0.131763,-0.956528,-0.260179,0.007191,0.017090,-0.148100,-11.262405,-32.464214,-14.028955,,,,,,,
1505914740.604237,-0.428317,1.266332,0.158712,-0.144090,-0.092994,-0.470704,-0.124512,-0.954008,-0.272701,-0.012985,0.033048,-0.138187,-11.173538,-32.495888,-14.026684,,,,,,,
1505914740.624184,-0.397276,1.268019,0.126229,-0.093183,0.045356,-0.478133,-0.115365,-0.954512,-0.274951,0.088449,0.111662,-0.130414,-10.785759,-32.428356,-14.479221,,,,,,,
1505914740.644173,-0.367743,1.270661,0.095939,-0.021844,-0.006701,-0.455530,-0.106289,-0.955297,-0.275882,0.123989,0.118474,-0.104885,-10.464565,-32.505466,-14.541870,,,,,,,
1505914740.664141,-0.319290,1.269782,0.045313,-0.003996,-0.155758,-0.401716,-0.093066,-0.955036,-0.281504,0.096636,0.095325,-0.057698,-9.916166,-32.582870,-14.751429,,,,,,,
1505914740.684083,-0.298442,1.271470,0.019637,-0.057414,-0.182499,-0.390415,-0.086703,-0.955535,-0.281842,0.033084,0.077178,-0.032550,-9.862273,-32.602409,-14.744389,,,,,,,
1505914740.704077,-0.271047,1.269219,-0.011794,-0.080405,-0.119578,-0.441579,-0.079526,-0.954869,-0.286183,-0.002551,0.076650,-0.032741,-9.553928,-32.647133,-14.848089,,,,,,,
1505914740.724046,-0.241820,1.270475,-0.043888,-0.044743,-0.040588,-0.493367,-0.070842,-0.955241,-0.287220,0.035975,0.066356,-0.015407,-9.218976,-32.727596,-14.882662,,,,,,,
1505914740.743990,-0.198180,1.271347,-0.088067,-0.037869,0.047553,-0.468171,-0.058080,-0.955499,-0.289220,0.095342,0.035882,0.000173,-8.857944,-32.796024,-14.951130,,,,,,,
1505914740.763981,-0.170690,1.271776,-0.115593,-0.063855,0.044856,-0.358032,-0.050039,-0.955625,-0.290304,0.123128,0.019987,-0.005030,-8.544365,-32.862595,-14.987410,,,,,,,
1505914740.783950,-0.152109,1.271144,-0.135336,-0.084306,-0.052479,-0.242006,-0.044728,-0.955439,-0.291780,0.054753,0.049739,-0.023742,-8.268073,-32.905190,-15.048784,,,,,,,
1505914740.803895,-0.140308,1.270242,-0.149801,-0.067698,-0.119660,-0.191976,-0.041402,-0.955173,-0.293140,0.000020,0.076022,-0.016659,-8.174511,-32.914223,-15.080113,,,,,,,
1505914740.823885,-0.134541,1.270000,-0.158458,-0.017678,-0.083419,-0.190384,-0.039742,-0.955101,-0.293603,-0.015602,0.067894,0.022928,-8.084028,-32.927422,-15.100068,,,,,,,
1505914740.843853,-0.123373,1.270703,-0.170759,0.019238,0.005903,-0.177844,-0.036378,-0.955309,-0.293362,0.033006,0.031755,0.069318,-7.999547,-32.955521,-15.083748,,,,,,,
1505914740.863801,-0.103631,1.276469,-0.189917,0.002582,0.030112,-0.132826,-0.030009,-0.956998,-0.288539,0.045421,0.016217,0.074825,-7.912210,-32.979374,-15.077683,,,,,,,
1505914740.883790,-0.096553,1.276353,-0.196916,-0.025770,0.008551,-0.081719,-0.027977,-0.956964,-0.288855,0.050072,0.053842,0.063498,-7.701446,-33.096878,-14.928598,,,,,,,
1505914740.903758,-0.092713,1.275914,-0.201102,-0.021857,-0.019239,-0.048663,-0.026906,-0.956836,-0.289379,0.046606,0.098758,0.068355,-7.641046,-33.100601,-14.951361,,,,,,,
1505914740.923707,-0.091549,1.276176,-0.203342,0.030189,-0.064981,-0.020783,-0.026547,-0.956912,-0.289161,0.041332,0.101184,0.091178,-7.625411,-33.105904,-14.947600,,,,,,,
1505914740.943693,-0.094247,1.277015,-0.202347,0.043512,-0.099206,0.028355,-0.027251,-0.957156,-0.288289,0.031523,0.073489,0.078267,-7.638078,-33.115284,-14.920338,,,,,,,
1505914740.963662,-0.093666,1.278332,-0.204521,-0.009376,-0.097401,0.074096,-0.026966,-0.957536,-0.287049,0.028507,0.036775,0.024522,-7.708046,-33.119732,-14.874409,,,,,,,
1505914740.983611,-0.101574,1.276988,-0.198025,-0.082505,-0.077534,0.113405,-0.029365,-0.957148,-0.288106,0.032539,-0.017202,-0.014353,-7.724129,-33.122528,-14.859833,,,,,,,
1505914741.003597,-0.110409,1.275438,-0.191108,-0.044727,-0.143288,0.095028,-0.032073,-0.956698,-0.289311,0.030593,-0.054487,-0.013424,-7.774286,-33.101379,-14.880782,,,,,,,
1505914741.023566,-0.116919,1.275152,-0.188646,0.005983,-0.240517,-0.006998,-0.033988,-0.956615,-0.289367,-0.066507,-0.137135,0.045333,-7.922888,-33.065765,-14.881582,,,,,,,
1505914741.043513,-0.115597,1.275719,-0.194922,0.022662,-0.218577,-0.143850,-0.033542,-0.956780,-0.288873,-0.084118,-0.154197,0.084466,-7.955885,-33.073391,-14.846990,,,,,,,
1505914741.063495,-0.106405,1.276743,-0.208850,0.031319,-0.219200,-0.233764,-0.030782,-0.957077,-0.288194,-0.082072,-0.133118,0.096727,-7.933428,-33.095379,-14.809965,,,,,,,
1505914741.083471,-0.111678,1.285141,-0.210550,0.042543,-0.319966,-0.254656,-0.031404,-0.959477,-0.280030,-0.029524,0.020055,0.136567,-7.944947,-33.246788,-14.460550,,,,,,,
1505914741.103438,-0.101613,1.286444,-0.229138,0.017598,-0.431530,-0.280110,-0.028457,-0.959844,-0.279089,0.041824,0.110280,0.123922,-7.875710,-33.300430,-14.374737,,,,,,,
1505914741.123401,-0.089061,1.284726,-0.253475,-0.218684,-0.630442,-0.360903,-0.025098,-0.959360,-0.281066,0.078626,0.101557,0.056517,-7.843408,-33.322903,-14.340279,,,,,,,
1505914741.143355,-0.076798,1.279706,-0.281055,-0.278097,-0.675142,-0.376521,-0.022019,-0.957932,-0.286151,-0.013946,-0.172211,0.028049,-7.764659,-33.312523,-14.407087,,,,,,,
1505914741.163342,-0.058953,1.275679,-0.308070,-0.211238,-0.230646,-0.367015,-0.017137,-0.956768,-0.290347,0.139192,-0.306705,-0.074415,-7.660752,-33.300327,-14.490669,,,,,,,
1505914741.183286,-0.037615,1.271917,-0.333005,-0.181925,-0.110523,-0.351122,-0.011073,-0.955667,-0.294241,0.169154,-0.350058,-0.152476,-7.567807,-33.297142,-14.546720,,,,,,,
1505914741.203261,-0.021599,1.270712,-0.350627,-0.009812,0.053767,-0.170250,-0.006384,-0.955312,-0.295532,0.161688,-0.270519,-0.139557,-7.288734,-33.305042,-14.670622,,,,,,,
1505914741.223246,-0.013127,1.271224,-0.355190,0.042285,0.249938,-0.038097,-0.003874,-0.955463,-0.295087,0.149702,0.011584,-0.126987,-7.175592,-33.322979,-14.685654,,,,,,,
1505914741.243215,-0.007861,1.273121,-0.356029,0.126161,0.192490,0.005968,-0.002306,-0.956021,-0.293290,0.238374,0.162350,-0.143310,-7.107098,-33.339943,-14.680458,,,,,,,
1505914741.263183,-0.009977,1.275668,-0.352300,0.115007,-0.026947,0.091327,-0.002902,-0.956765,-0.290848,0.217700,0.219750,-0.169448,-7.073731,-33.381805,-14.601227,,,,,,,
1505914741.283150,-0.023229,1.277089,-0.342504,0.043456,-0.266579,0.149428,-0.006724,-0.957177,-0.289425,-0.114186,0.105737,-0.102436,-7.197199,-33.390343,-14.521147,,,,,,,
1505914741.303097,-0.034363,1.276618,-0.334736,-0.064140,-0.056010,0.090080,-0.009962,-0.957041,-0.289783,-0.198611,0.044260,-0.103558,-7.322160,-33.379810,-14.482848,,,,,,,
1505914741.323065,-0.034138,1.273878,-0.328709,-0.173722,0.491223,0.106648,-0.009986,-0.956243,-0.292404,-0.142037,-0.012721,-0.165070,-7.363058,-33.329678,-14.577256,,,,,,,
1505914741.343033,-0.031280,1.269208,-0.320528,-0.258418,0.478135,0.140333,-0.009290,-0.954866,-0.296892,0.005811,0.027711,-0.240476,-7.285029,-33.250946,-14.794645,,,,,,,
1505914741.363000,-0.036706,1.263858,-0.309465,-0.248572,0.119579,0.201418,-0.011088,-0.953263,-0.301938,0.012141,0.021272,-0.254138,-7.273453,-33.175270,-14.969194,,,,,,,
1505914741.382968,-0.052425,1.260328,-0.293746,-0.097344,-0.101584,0.271672,-0.016009,-0.952191,-0.305085,-0.021024,-0.030628,-0.226318,-7.433873,-33.053867,-15.157772,,,,,,,
1505914741.402937,-0.077318,1.260973,-0.270839,0.147606,-0.177192,0.403339,-0.023550,-0.952387,-0.303980,-0.072107,-0.074651,-0.107321,-7.682118,-33.004513,-15.141517,,,,,,,
1505914741.422906,-0.110872,1.264996,-0.237992,0.279214,-0.041325,0.506688,-0.033310,-0.953606,-0.299208,-0.074279,-0.031226,-0.049456,-7.935174,-32.997723,-15.025375,,,,,,,
1505914741.442865,-0.142568,1.268324,-0.201969,0.179086,0.232735,0.514168,-0.042325,-0.954603,-0.294859,0.012723,0.171919,0.015150,-8.342177,-32.991352,-14.817465,,,,,,,
1505914741.462834,-0.168678,1.267584,-0.167809,-0.040952,0.357786,0.505038,-0.050126,-0.954382,-0.294350,0.058092,0.269034,0.008095,-8.534079,-32.954391,-14.790404,,,,,,,
1505914741.482786,-0.191021,1.262323,-0.137875,-0.255851,0.268174,0.477510,-0.057643,-0.952798,-0.298082,0.069987,0.277124,0.007921,-8.705400,-32.879822,-14.856371,,,,,,,
1505914741.502769,-0.210386,1.253537,-0.113694,-0.406440,0.126646,0.439343,-0.065150,-0.950094,-0.305085,0.004221,0.158041,-0.025985,-8.937166,-32.726341,-15.056299,,,,,,,
1505914741.522744,-0.227237,1.243375,-0.094352,-0.422662,0.065188,0.388540,-0.072453,-0.946875,-0.313334,-0.034954,0.097113,-0.036504,-9.243394,-32.475594,-15.410192,,,,,,,
1505914741.542691,-0.240702,1.235236,-0.077650,-0.260163,0.156096,0.344008,-0.078500,-0.944226,-0.319805,-0.086982,-0.019718,-0.058231,-9.415798,-32.323902,-15.623267,,,,,,,
1505914741.562675,-0.268503,1.228302,-0.045764,-0.009320,0.219435,0.321274,-0.089094,-0.941920,-0.323804,-0.098895,-0.058523,-0.040392,-8.879095,-35.913036,-20.513466,,,,,,,
1505914741.582650,-0.282529,1.229201,-0.025803,0.206353,0.244403,0.304507,-0.093391,-0.942221,-0.321710,-0.082833,-0.039483,-0.021064,-9.239655,-35.800365,-20.551140,,,,,,,
1505914741.602597,-0.298371,1.232854,-0.004084,0.306939,0.214912,0.288866,-0.097463,-0.943439,-0.316898,-0.051387,0.020023,0.021610,-9.297489,-35.818592,-20.493212,,,,,,,
1505914741.622581,-0.327858,1.237758,0.029129,0.290725,0.134294,0.242242,-0.105272,-0.945053,-0.309503,-0.070204,0.107300,0.089547,-9.478437,-35.922459,-20.226782,,,,,,,
1505914741.642553,-0.340312,1.240867,0.044527,0.184294,0.098368,0.149285,-0.108137,-0.946065,-0.305396,-0.072664,0.120305,0.102897,-9.741061,-35.988853,-19.982512,,,,,,,
1505914741.662503,-0.344943,1.242239,0.051695,0.058592,0.113463,0.050095,-0.109111,-0.946509,-0.303670,-0.059758,0.114096,0.107763,-9.769846,-36.009083,-19.931950,,,,,,,
1505914741.682492,-0.342991,1.242418,0.051783,-0.012839,0.094561,-0.030768,-0.108461,-0.946566,-0.303724,-0.033369,0.064700,0.056287,-9.750414,-36.028049,-19.907179,,,,,,,
1505914741.702458,-0.337861,1.242435,0.048265,-0.013481,0.089390,-0.061862,-0.106896,-0.946572,-0.304260,-0.024863,0.044152,0.031341,-9.680891,-36.029842,-19.937843,,,,,,,
1505914741.722409,-0.333610,1.243041,0.045537,0.033184,0.082999,-0.039131,-0.105414,-0.946767,-0.304170,-0.023889,0.009939,0.011140,-9.622829,-36.037514,-19.952076,,,,,,,
1505914741.742393,-0.333434,1.244951,0.047713,0.079263,0.149832,0.011884,-0.104769,-0.947380,-0.302480,0.024996,0.019432,0.018361,-9.552273,-36.066032,-19.934448,,,,,,,
1505914741.762362,-0.332572,1.246726,0.050801,0.110030,0.197724,0.014498,-0.103959,-0.947947,-0.300980,0.045304,0.018534,0.026444,-9.501545,-36.113384,-19.872864,,,,,,,
1505914741.782317,-0.331610,1.248909,0.053508,0.118798,0.162703,0.004701,-0.102995,-0.948640,-0.299122,0.026258,-0.012114,0.049213,-9.467315,-36.134464,-19.850872,,,,,,,
1505914741.802299,-0.342044,1.255923,0.067079,0.097519,0.188900,0.076488,-0.103876,-0.950836,-0.291756,-0.017004,-0.075959,0.080284,-9.435738,-36.305183,-19.552162,,,,,,,
1505914741.822267,-0.348335,1.256429,0.079331,0.086541,0.319978,0.232504,-0.105546,-0.950992,-0.290645,0.012513,-0.091580,0.092723,-9.438843,-36.315922,-19.530720,,,,,,,
1505914741.842221,-0.363148,1.262274,0.102646,0.111243,0.398075,0.365916,-0.107863,-0.952783,-0.283848,0.026976,-0.086096,0.085774,-9.465570,-36.309227,-19.530224,,,,,,,
1505914741.862175,-0.381387,1.262075,0.130153,0.161997,0.399078,0.400497,-0.113092,-0.952723,-0.282010,-0.013724,-0.027532,0.118893,-9.573902,-36.407696,-19.292662,,,,,,,
1505914741.882163,-0.417395,1.267113,0.175255,0.183300,0.454441,0.392396,-0.121224,-0.954242,-0.273364,-0.120750,0.006259,0.065692,-9.831106,-36.493134,-18.999660,,,,,,,
1505914741.902127,-0.431959,1.264581,0.199376,-0.110668,0.405071,0.364638,-0.126203,-0.953481,-0.273763,-0.175493,-0.044611,-0.080195,-9.918879,-36.475964,-18.987019,,,,,,,
1505914741.922102,-0.433874,1.257360,0.210696,-0.258994,0.441329,0.277221,-0.129619,-0.951280,-0.279761,-0.088445,-0.264968,-0.046884,-10.023703,-36.307487,-19.253010,,,,,,,
1505914741.942075,-0.442075,1.252170,0.223943,-0.115572,0.038418,0.332410,-0.134019,-0.949667,-0.283147,-0.314544,-0.284434,-0.198588,-10.066839,-36.206230,-19.420465,,,,,,,
1505914741.962043,-0.462105,1.244832,0.241664,-0.260518,-0.182505,0.450160,-0.142766,-0.947342,-0.286637,-0.331508,-0.191024,-0.281082,-10.325139,-36.079502,-19.520443,,,,,,,
1505914741.982012,-0.480915,1.238088,0.260298,-0.055169,-0.004178,0.373211,-0.151084,-0.945161,-0.289558,-0.132882,-0.154250,-0.224663,-10.780336,-35.856354,-19.684841,,,,,,,
1505914742.001979,-0.495820,1.238134,0.276700,0.212289,0.021860,0.151134,-0.155362,-0.945176,-0.287236,0.055219,-0.034926,-0.111888,-10.847525,-35.830784,-19.694487,,,,,,,
1505914742.021947,-0.504730,1.242893,0.284464,0.278961,-0.141642,-0.094705,-0.155738,-0.946720,-0.281900,0.032539,0.138279,-0.094275,-11.031855,-35.874020,-19.512547,,,,,,,
1505914742.041916,-0.502977,1.249291,0.279570,0.215264,-0.110032,-0.287671,-0.152321,-0.948761,-0.276859,0.085106,0.204544,-0.137020,-10.968842,-36.041473,-19.237547,,,,,,,
1505914742.061884,-0.491442,1.255612,0.267014,0.175913,0.022968,-0.326730,-0.146284,-0.950739,-0.273305,0.124769,0.115961,-0.150508,-10.927612,-36.077847,-19.192783,,,,,,,
1505914742.081852,-0.481352,1.261189,0.256925,0.172330,0.016058,-0.215412,-0.141062,-0.952453,-0.270063,0.153941,-0.020233,-0.161364,-10.586649,-36.283325,-18.995522,,,,,,,
1505914742.101820,-0.480812,1.265044,0.256092,0.164694,-0.044255,-0.030557,-0.139217,-0.953621,-0.266882,0.183269,-0.006478,-0.225366,-10.431067,-36.407219,-18.843933,,,,,,,
1505914742.121789,-0.489908,1.267514,0.262869,0.141627,-0.176508,0.048830,-0.140530,-0.954361,-0.263525,0.157101,0.107148,-0.229715,-10.429671,-36.424290,-18.811691,,,,,,,
1505914742.141757,-0.498209,1.268389,0.268115,0.030652,-0.132037,0.039867,-0.142314,-0.954622,-0.261616,0.133113,0.167528,-0.202922,-10.555393,-36.490520,-18.612152,,,,,,,
1505914742.161724,-0.497969,1.267426,0.266931,-0.099160,0.001926,-0.016863,-0.142690,-0.954335,-0.262458,0.043477,0.118688,-0.177316,-10.624220,-36.482128,-18.589428,,,,,,,
1505914742.181679,-0.488560,1.265743,0.258036,-0.141706,0.055481,-0.119608,-0.140968,-0.953831,-0.265207,0.018776,0.064915,-0.172614,-10.620970,-36.473816,-18.607588,,,,,,,
1505914742.201638,-0.472606,1.265756,0.242275,-0.079917,0.038240,-0.270349,-0.136714,-0.953835,-0.267411,-0.007390,-0.044685,-0.194152,-10.514159,-36.434677,-18.744417,,,,,,,
1505914742.221629,-0.449875,1.269081,0.219002,0.044111,0.013802,-0.446465,-0.129220,-0.954828,-0.267591,0.038446,-0.038977,-0.200457,-10.315557,-36.453640,-18.817760,,,,,,,
1505914742.241587,-0.424131,1.275487,0.192385,0.163272,0.021754,-0.503537,-0.119770,-0.956712,-0.265249,0.091815,0.055543,-0.125666,-9.908617,-36.584919,-18.781630,,,,,,,
1505914742.261553,-0.399008,1.282439,0.166377,0.151044,-0.007182,-0.459875,-0.110482,-0.958712,-0.262039,0.098138,0.100772,-0.081757,-9.908617,-36.584919,-18.781630,,,,,,,
1505914742.281533,-0.375363,1.287089,0.140802,0.028811,-0.053407,-0.404123,-0.102620,-0.960024,-0.260428,0.066167,0.166674,-0.025049,-9.138342,-36.903725,-18.547028,,,,,,,
1505914742.301493,-0.350903,1.288974,0.113989,-0.079251,-0.082469,-0.374957,-0.095598,-0.960550,-0.261159,0.028337,0.157450,-0.040400,-8.871120,-36.967461,-18.549854,,,,,,,
1505914742.321469,-0.326644,1.289560,0.085879,-0.109784,-0.170720,-0.386382,-0.089054,-0.960713,-0.262868,0.009052,0.132634,-0.059916,-8.692702,-36.991604,-18.586140,,,,,,,
1505914742.341438,-0.301634,1.290049,0.055810,-0.100926,-0.188681,-0.406786,-0.082313,-0.960849,-0.264564,0.046440,0.083133,-0.045678,-8.411689,-37.025890,-18.647072,,,,,,,
1505914742.361399,-0.254734,1.288855,0.005694,-0.086564,-0.128186,-0.377434,-0.070108,-0.960517,-0.269243,0.074427,0.046500,-0.031386,-8.237580,-37.048740,-18.679390,,,,,,,
1505914742.381373,-0.231716,1.288928,-0.020765,-0.085911,-0.121947,-0.347405,-0.063877,-0.960537,-0.270717,0.074039,0.041088,-0.029255,-7.836872,-37.052872,-18.842899,,,,,,,
1505914742.401341,-0.210632,1.288678,-0.045379,-0.083008,-0.135883,-0.321769,-0.058205,-0.960468,-0.272238,0.089105,0.057621,-0.037240,-7.523173,-37.083046,-18.911270,,,,,,,
1505914742.421305,-0.169499,1.286432,-0.089216,-0.039835,-0.138121,-0.278702,-0.047325,-0.959840,-0.276527,0.067497,0.054750,-0.017448,-7.387949,-37.096714,-18.937759,,,,,,,
1505914742.441278,-0.155454,1.287073,-0.106490,0.009519,-0.120210,-0.222608,-0.043342,-0.960020,-0.276556,0.055076,0.046674,-0.008585,-7.027976,-37.092564,-19.082342,,,,,,,
1505914742.461246,-0.145187,1.288184,-0.119410,0.034332,-0.101286,-0.166655,-0.040345,-0.960330,-0.275931,0.044587,0.013965,0.025565,-6.854834,-37.144424,-19.044413,,,,,,,
1505914742.481211,-0.127983,1.291536,-0.138500,0.028286,-0.093038,-0.114174,-0.035182,-0.961260,-0.273390,0.038066,0.020510,0.034010,-6.798127,-37.169464,-19.015863,,,,,,,
1505914742.501182,-0.123268,1.292121,-0.145008,0.012854,-0.064510,-0.083036,-0.033823,-0.961421,-0.272995,0.035761,0.033366,0.032043,-6.632092,-37.246861,-18.922825,,,,,,,
1505914742.521141,-0.119301,1.292575,-0.150011,0.017829,-0.029508,-0.063517,-0.032688,-0.961546,-0.272694,0.039859,0.078870,0.025043,-6.575389,-37.271095,-18.894878,,,,,,,
1505914742.541117,-0.116723,1.293117,-0.153312,0.023914,-0.037058,-0.037823,-0.031924,-0.961694,-0.272259,0.048251,0.093591,0.022930,-6.551083,-37.282158,-18.881487,,,,,,,
1505914742.561064,-0.104130,1.293798,-0.167038,0.012114,-0.105217,-0.017967,-0.028425,-0.961881,-0.271988,0.043821,0.086987,0.023133,-6.540827,-37.292603,-18.864412,,,,,,,
1505914742.581041,-0.106086,1.293703,-0.168067,-0.015511,-0.171217,-0.012104,-0.028967,-0.961855,-0.272023,0.011434,0.021425,0.027532,-6.442643,-37.319412,-18.845167,,,,,,,
1505914742.601023,-0.109025,1.293383,-0.169013,-0.013283,-0.197786,-0.013322,-0.029799,-0.961767,-0.272243,-0.010041,-0.007090,-0.010319,-6.488044,-37.315418,-18.837503,,,,,,,
1505914742.620973,-0.113323,1.291735,-0.168792,0.002981,-0.206174,-0.031479,-0.031148,-0.961314,-0.273686,-0.010661,-0.018559,-0.028300,-6.579613,-37.279003,-18.877804,,,,,,,
1505914742.640959,-0.114930,1.291972,-0.172439,0.002670,-0.293176,-0.069490,-0.031562,-0.961380,-0.273410,-0.041405,-0.003662,-0.028806,-6.650270,-37.287464,-18.836281,,,,,,,
1505914742.660898,-0.123504,1.293152,-0.171458,-0.034194,-0.358688,-0.171839,-0.033765,-0.961704,-0.272003,-0.043734,-0.027417,0.016952,-6.689099,-37.295105,-18.807384,,,,,,,
1505914742.680894,-0.112701,1.292493,-0.189958,-0.078602,-0.339097,-0.287652,-0.030896,-0.961523,-0.272982,-0.016879,-0.063639,0.073977,-6.797152,-37.317142,-18.724749,,,,,,,
1505914742.700863,-0.092695,1.296472,-0.217200,-0.102261,-0.306907,-0.360428,-0.025075,-0.962609,-0.269733,0.020909,-0.069633,0.092029,-6.758566,-37.321991,-18.729055,,,,,,,
1505914742.720804,-0.071958,1.295379,-0.245139,-0.066864,-0.318476,-0.372067,-0.019552,-0.962312,-0.271245,0.094396,-0.062759,0.093175,-6.499398,-37.440056,-18.584581,,,,,,,
1505914742.740798,-0.056166,1.295489,-0.269160,0.012262,-0.394199,-0.287444,-0.015260,-0.962342,-0.271414,0.137834,-0.064697,0.097326,-6.350327,-37.466240,-18.583351,,,,,,,
1505914742.760767,-0.046583,1.295038,-0.287551,-0.105595,-0.420156,-0.244395,-0.012679,-0.962219,-0.271981,0.182418,-0.071350,-0.008353,-6.279858,-37.506409,-18.526182,,,,,,,
1505914742.780710,-0.034672,1.290840,-0.308711,-0.256321,-0.379740,-0.312524,-0.009578,-0.961068,-0.276147,0.069194,-0.219276,-0.056113,-6.256606,-37.485245,-18.576811,,,,,,,
1505914742.800703,-0.013583,1.287171,-0.332860,-0.134754,0.073486,-0.327271,-0.003801,-0.960047,-0.279812,0.086198,-0.275701,-0.064533,-6.184586,-37.444469,-18.682861,,,,,,,
1505914742.820671,0.009557,1.286306,-0.353923,0.007464,0.127783,-0.282183,0.002682,-0.959805,-0.280655,0.152393,-0.247242,-0.135055,-5.938261,-37.426338,-18.798746,,,,,,,
1505914742.840628,0.027615,1.288659,-0.370784,0.192919,0.105360,-0.181609,0.007687,-0.960463,-0.278303,0.070804,-0.215609,-0.084368,-5.568179,-37.493141,-18.778881,,,,,,,
1505914742.860608,0.036405,1.293133,-0.376949,0.211012,0.148255,-0.025951,0.009977,-0.961699,-0.273927,-0.002942,-0.167711,-0.066145,-5.568179,-37.493141,-18.778881,,,,,,,
1505914742.880576,0.033964,1.295346,-0.372622,0.039871,0.034561,0.112637,0.009236,-0.962303,-0.271823,-0.057484,0.260978,-0.114987,-5.409724,-37.642078,-18.525536,,,,,,,
1505914742.900537,0.021312,1.294457,-0.361202,-0.089452,-0.156286,0.171759,0.005814,-0.962061,-0.272774,-0.034501,0.351358,-0.179573,-5.487530,-37.631283,-18.524588,,,,,,,
1505914742.920512,0.006812,1.292229,-0.351190,-0.114688,-0.281410,0.090530,0.001873,-0.961450,-0.274972,-0.046993,0.304666,-0.190009,-5.624889,-37.593086,-18.560907,,,,,,,
1505914742.940480,0.005061,1.290445,-0.353705,-0.072021,-0.104961,-0.109493,0.001400,-0.960958,-0.276690,-0.140789,-0.020884,-0.223432,-5.828891,-37.524651,-18.636290,,,,,,,
1505914742.960425,0.019202,1.289340,-0.364733,-0.047106,0.331198,-0.153837,0.005333,-0.960652,-0.277704,-0.076683,-0.148571,-0.266958,-5.749428,-37.518978,-18.672358,,,,,,,
1505914742.980416,0.032713,1.288542,-0.371444,-0.029208,0.295647,-0.046847,0.009110,-0.960430,-0.278372,-0.028626,-0.134449,-0.286233,-5.575675,-37.518448,-18.726040,,,,,,,
1505914743.000384,0.031228,1.288619,-0.367170,0.029974,0.052528,0.130893,0.008694,-0.960451,-0.278312,-0.002652,0.009920,-0.252160,-5.409476,-37.510159,-18.791283,,,,,,,
1505914743.020342,0.013247,1.290587,-0.349701,0.129763,-0.127693,0.289978,0.003663,-0.960998,-0.276533,-0.054033,0.050963,-0.241015,-5.568736,-37.513222,-18.738564,,,,,,,
1505914743.040320,-0.024416,1.279432,-0.315484,0.177928,-0.208412,0.293003,-0.007013,-0.957853,-0.287173,-0.047949,0.016828,-0.175031,-5.941611,-37.234535,-19.174814,,,,,,,
1505914743.060264,-0.050794,1.282521,-0.292272,0.152462,-0.186443,0.358312,-0.014434,-0.958736,-0.283933,-0.051270,0.027873,-0.103198,-6.326257,-37.270218,-18.981461,,,,,,,
1505914743.080240,-0.092547,1.278096,-0.251872,0.030244,-0.057434,0.453686,-0.026665,-0.957468,-0.287304,-0.063301,0.136713,-0.041538,-6.731336,-37.147003,-19.083397,,,,,,,
1505914743.100225,-0.123977,1.275461,-0.219100,-0.143356,0.023894,0.492765,-0.035992,-0.956705,-0.288826,-0.051013,0.222620,-0.011284,-7.091480,-37.085789,-19.072014,,,,,,,
1505914743.120192,-0.150846,1.270069,-0.190352,-0.240584,0.006049,0.423520,-0.044514,-0.955121,-0.292851,-0.020992,0.231092,-0.007823,-7.518495,-36.917923,-19.233456,,,,,,,
1505914743.140160,-0.171769,1.263484,-0.169506,-0.288138,-0.081839,0.327390,-0.051705,-0.953150,-0.298046,-0.003700,0.175440,-0.001941,-7.813517,-36.757267,-19.422638,,,,,,,
1505914743.160129,-0.187820,1.256710,-0.154579,-0.289482,-0.081560,0.267409,-0.057686,-0.951079,-0.303514,-0.000435,0.129714,-0.009138,-7.947022,-36.675762,-19.522289,,,,,,,
1505914743.180097,-0.200638,1.250619,-0.141531,-0.238380,0.015354,0.254376,-0.062725,-0.949180,-0.308421,-0.004536,0.050071,-0.060307,-8.278489,-36.445404,-19.813774,,,,,,,
1505914743.200065,-0.212013,1.245592,-0.128669,-0.177639,0.048442,0.252797,-0.067232,-0.947586,-0.312348,-0.018507,0.025085,-0.081725,-8.448385,-36.316032,-19.978914,,,,,,,
1505914743.220033,-0.229278,1.237392,-0.110377,-0.047286,0.011526,0.245864,-0.074378,-0.944934,-0.318697,-0.032266,0.015506,-0.060789,-8.531057,-36.261990,-20.041845,,,,,,,
1505914743.239982,-0.242654,1.236865,-0.096195,0.065068,0.004419,0.222932,-0.078754,-0.944761,-0.318158,-0.070355,0.010755,0.000821,-8.889467,-36.061218,-20.247284,,,,,,,
1505914743.259970,-0.255674,1.237466,-0.081921,0.088495,0.033186,0.220032,-0.082746,-0.944958,-0.316556,-0.063128,0.035931,0.012814,-9.041451,-36.054535,-20.191813,,,,,,,
1505914743.279931,-0.281191,1.236396,-0.055841,0.048214,0.021487,0.202598,-0.091076,-0.944607,-0.315313,-0.052570,0.055752,0.016820,-9.114069,-36.051888,-20.163879,,,,,,,
1505914743.299894,-0.290823,1.235631,-0.045440,-0.009833,0.004567,0.158239,-0.094316,-0.944356,-0.315113,-0.053206,0.092198,0.036335,-9.496395,-35.979691,-20.116335,,,,,,,
1505914743.319874,-0.297143,1.233967,-0.038716,-0.073252,0.004652,0.112879,-0.096766,-0.943807,-0.316013,-0.055212,0.084966,0.048816,-9.597624,-35.939907,-20.139397,,,,,,,
1505914743.339817,-0.299321,1.231366,-0.035655,-0.129481,0.064251,0.075419,-0.098178,-0.942945,-0.318146,-0.046201,0.076184,0.043488,-9.634392,-35.913357,-20.169186,,,,,,,
1505914743.359793,-0.303895,1.227986,-0.028904,-0.145700,0.150346,0.072633,-0.100585,-0.941814,-0.320733,-0.001970,0.051952,0.012261,-9.743744,-35.838158,-20.250252,,,,,,,
1505914743.379778,-0.302235,1.225155,-0.027060,-0.109475,0.175944,0.070862,-0.100845,-0.940858,-0.323443,0.024460,0.031740,0.001925,-9.734642,-35.749012,-20.411560,,,,,,,
1505914743.399746,-0.296814,1.223352,-0.028289,-0.048903,0.194074,0.085252,-0.099586,-0.940246,-0.325607,0.024467,0.019836,0.001800,-9.719234,-35.705212,-20.495390,,,,,,,
1505914743.419714,-0.297793,1.222291,-0.022894,-0.015178,0.209958,0.113395,-0.100198,-0.939884,-0.326463,-0.011328,0.005741,0.013979,-9.637688,-35.671062,-20.593132,,,,,,,
1505914743.439682,-0.305661,1.221330,-0.010459,-0.021924,0.240683,0.132822,-0.103035,-0.939556,-0.326526,-0.028297,0.010616,0.014926,-9.628665,-35.635258,-20.659229,,,,,,,
1505914743.459650,-0.307009,1.220070,-0.003404,-0.020947,0.270452,0.133008,-0.103833,-0.939123,-0.327515,-0.029544,0.011374,0.016220,-9.704837,-35.605602,-20.674721,,,,,,,
1505914743.479600,-0.308424,1.219212,0.003861,0.009948,0.275820,0.135367,-0.104541,-0.938828,-0.328136,-0.044995,-0.014144,0.038890,-9.689013,-35.570702,-20.742107,,,,,,,
1505914743.499587,-0.321133,1.221141,0.022630,0.050837,0.329916,0.178783,-0.108131,-0.939491,-0.325061,-0.041955,-0.068764,0.069843,-9.775558,-35.584869,-20.677095,,,,,,,
1505914743.519528,-0.326425,1.221282,0.036175,0.097870,0.391391,0.239409,-0.109807,-0.939539,-0.324359,-0.040279,-0.068716,0.069141,-9.768684,-35.574512,-20.698154,,,,,,,
1505914743.539523,-0.342265,1.225252,0.060419,0.145320,0.383829,0.284631,-0.113678,-0.940891,-0.319063,-0.070190,-0.135510,0.127092,-9.789895,-35.567101,-20.700872,,,,,,,
1505914743.559489,-0.354881,1.226343,0.081972,0.191346,0.397430,0.351388,-0.117337,-0.941260,-0.316641,-0.118670,-0.114709,0.165228,-9.910637,-35.643574,-20.511009,,,,,,,
1505914743.579455,-0.370162,1.227531,0.107734,0.217198,0.486589,0.393849,-0.121757,-0.941661,-0.313768,-0.138207,-0.084325,0.170442,-9.910637,-35.643574,-20.511009,,,,,,,
1505914743.599418,-0.392393,1.227780,0.140117,-0.026156,0.456638,0.326891,-0.128613,-0.941744,-0.310767,-0.100971,0.003085,-0.072137,-10.200117,-35.660076,-20.339701,,,,,,,
1505914743.619394,-0.391501,1.222059,0.148931,-0.231654,0.426953,0.220528,-0.130389,-0.939805,-0.315857,0.032870,-0.242248,-0.082260,-10.204437,-35.540359,-20.546021,,,,,,,
1505914743.639340,-0.401132,1.217082,0.161421,-0.134914,-0.121081,0.368809,-0.135249,-0.938093,-0.318888,-0.094807,-0.329577,-0.112875,-10.204437,-35.540359,-20.546021,,,,,,,
1505914743.659324,-0.425385,1.209097,0.181429,-0.257163,-0.267735,0.528911,-0.146030,-0.935297,-0.322328,-0.318127,-0.199103,-0.241820,-10.464377,-35.344261,-20.752514,,,,,,,
1505914743.679300,-0.451458,1.203007,0.205800,0.056597,-0.118073,0.489921,-0.156865,-0.933124,-0.323531,-0.093181,-0.139309,-0.164217,-11.157072,-35.056866,-20.878761,,,,,,,
1505914743.699246,-0.474799,1.204614,0.229673,0.346531,-0.021722,0.246983,-0.163688,-0.933701,-0.318447,0.042563,-0.090148,-0.105427,-11.157072,-35.056866,-20.878761,,,,,,,
1505914743.719230,-0.486600,1.210412,0.242242,0.349226,0.005167,-0.044143,-0.164900,-0.935761,-0.311703,0.115675,0.163545,-0.051075,-11.552223,-35.093079,-20.601181,,,,,,,
1505914743.739204,-0.485436,1.217597,0.241934,0.296954,0.083517,-0.223906,-0.161396,-0.938271,-0.305940,0.167865,0.223671,-0.083312,-11.474891,-35.323689,-20.247238,,,,,,,
1505914743.759152,-0.478760,1.224281,0.238086,0.248250,0.173636,-0.191525,-0.156457,-0.940562,-0.301437,0.164040,0.182231,-0.108017,-11.373855,-35.408314,-20.156231,,,,,,,
1505914743.779136,-0.473342,1.229456,0.235625,0.193143,0.142413,-0.132068,-0.152600,-0.942307,-0.297944,0.159116,0.012223,-0.136839,-11.079140,-35.614067,-19.956900,,,,,,,
1505914743.799108,-0.473843,1.233542,0.238527,0.217007,0.082240,0.013364,-0.150991,-0.943667,-0.294439,0.182989,-0.040342,-0.163279,-10.966973,-35.711891,-19.843708,,,,,,,
1505914743.819072,-0.484432,1.237032,0.250349,0.259633,-0.007471,0.118033,-0.152566,-0.944816,-0.289908,0.190011,-0.001778,-0.221811,-10.965020,-35.752220,-19.772041,,,,,,,
1505914743.839035,-0.497272,1.240899,0.262968,0.264783,-0.051847,0.061035,-0.154532,-0.946076,-0.284711,0.156759,0.148102,-0.190935,-11.082336,-35.871071,-19.489349,,,,,,,
1505914743.859013,-0.504686,1.245010,0.270377,0.215603,0.003741,-0.024602,-0.154756,-0.947399,-0.280152,0.137346,0.169140,-0.171264,-11.114925,-35.939049,-19.345024,,,,,,,
1505914743.878952,-0.504816,1.248269,0.271558,0.109463,0.080352,-0.083678,-0.153299,-0.948437,-0.277428,0.065439,0.120175,-0.131874,-11.100681,-36.004940,-19.230328,,,,,,,
1505914743.898925,-0.497648,1.250758,0.266783,0.069593,0.148625,-0.149905,-0.150179,-0.949224,-0.276444,0.047777,-0.068446,-0.131241,-10.946203,-36.096924,-19.146261,,,,,,,
1505914743.918917,-0.487759,1.254551,0.258625,0.139327,0.064141,-0.241030,-0.145749,-0.950410,-0.274733,0.035169,-0.105163,-0.146105,-10.815196,-36.147717,-19.124874,,,,,,,
1505914743.938868,-0.477054,1.261054,0.247133,0.241163,-0.042595,-0.334239,-0.139959,-0.952412,-0.270781,0.051779,-0.069393,-0.147019,-10.665742,-36.226593,-19.059446,,,,,,,
1505914743.958851,-0.466511,1.268372,0.235117,0.221664,-0.028904,-0.314996,-0.133958,-0.954617,-0.266010,0.103517,0.093457,-0.029446,-10.332474,-36.462719,-18.790869,,,,,,,
1505914743.978821,-0.453054,1.273236,0.221311,0.067406,0.034420,-0.282336,-0.128333,-0.956055,-0.263610,0.108786,0.155762,-0.023225,-10.115065,-36.585991,-18.669159,,,,,,,
1505914743.998776,-0.434435,1.275412,0.202471,-0.063409,0.010890,-0.308963,-0.122527,-0.956690,-0.264066,0.105071,0.150721,-0.031741,-10.004156,-36.623402,-18.655560,,,,,,,
1505914744.018730,-0.411841,1.276656,0.178295,-0.094458,-0.053752,-0.367371,-0.116053,-0.957052,-0.265676,0.086115,0.114828,-0.054621,-9.651486,-36.683395,-18.723358,,,,,,,
1505914744.038726,-0.387669,1.277856,0.150855,-0.103459,-0.131248,-0.395738,-0.109164,-0.957399,-0.267340,0.072329,0.083528,-0.044260,-9.403166,-36.719799,-18.778271,,,,,,,
