timestamp(unix),attitude_roll(radians),attitude_pitch(radians),attitude_yaw(radians),rotation_rate_x(radians/s),rotation_rate_y(radians/s),rotation_rate_z(radians/s),gravity_x(G),gravity_y(G),gravity_z(G),user_acc_x(G),user_acc_y(G),user_acc_z(G),magnetic_field_x(microteslas),magnetic_field_y(microteslas),magnetic_field_z(microteslas),latitude(degree),longitude(degree),altitude(meter),speed(m/s),course(degree),timestamp(unix),User Mark
,,,,,,,,,,,,,,,,42.293626,-71.264009,61.205101,-1.000000,-1.000000,1505916293.611276,
1505916293.667616,-0.020851,0.297185,1.495556,0.732704,-0.055848,0.389293,-0.019935,-0.292830,-0.955957,0.006187,-0.050905,0.129342,3.210979,-2.069125,-41.813698,,,,,,,
1505916293.687557,-0.023162,0.315118,1.505434,1.002542,-0.003567,0.466190,-0.022020,-0.309929,-0.950505,0.021119,0.031379,-0.021236,3.201903,-2.594139,-41.785107,,,,,,,
,,,,,,,,,,,,,,,,42.293626,-71.264009,61.205101,-1.000000,-1.000000,1505916288.893705,
1505916293.707550,-0.030043,0.334876,1.514658,0.964043,-0.297721,0.376366,-0.028370,-0.328652,-0.944025,0.040119,0.048454,-0.025656,3.174936,-3.237556,-41.742241,,,,,,,
1505916293.727516,-0.037971,0.351772,1.524054,0.812826,-0.164586,0.486575,-0.035637,-0.344562,-0.938087,0.026619,-0.084103,0.154228,2.818375,-4.438634,-41.657318,,,,,,,
1505916293.747459,-0.045082,0.368286,1.539146,0.920917,-0.060407,0.762018,-0.042044,-0.360017,-0.931998,0.076667,-0.050780,0.073981,2.698933,-4.970905,-41.605083,,,,,,,
1505916293.767449,-0.051931,0.388487,1.556425,1.087029,-0.012980,0.695826,-0.048039,-0.378788,-0.924236,0.063039,0.113652,0.038097,2.574877,-5.802050,-41.505219,,,,,,,
1505916293.787414,-0.056239,0.397587,1.564591,-0.058887,-0.229377,0.097564,-0.051825,-0.387195,-0.920540,0.017172,0.246249,-0.090965,2.480839,-6.691616,-41.376858,,,,,,,
1505916293.807380,-0.064349,0.380630,1.555830,-1.210625,-0.830466,-0.540537,-0.059702,-0.371505,-0.926509,0.004923,0.002334,-0.047810,2.156543,-6.199500,-41.471584,,,,,,,
1505916293.827348,-0.078343,0.347734,1.539756,-1.951566,-1.010176,-0.626374,-0.073579,-0.340768,-0.937264,0.091096,-0.082556,0.112450,1.819430,-5.641862,-41.567245,,,,,,,
1505916293.847293,-0.093183,0.302835,1.525453,-2.471480,-0.886896,-0.387770,-0.088814,-0.298227,-0.950354,0.063699,-0.123816,0.119086,0.648600,-3.102193,-41.868034,,,,,,,
1505916293.867280,-0.104820,0.252892,1.515637,-2.498162,-0.680940,-0.109306,-0.101300,-0.250205,-0.962879,0.096387,-0.144997,-0.026410,0.160336,-1.520401,-41.959976,,,,,,,
1505916293.887248,-0.122235,0.211065,1.511688,-1.790084,-1.172781,0.109369,-0.119225,-0.209501,-0.970512,0.097466,-0.150102,-0.073875,-0.275273,0.040489,-41.986897,,,,,,,
1505916293.907211,-0.154034,0.187838,1.511017,-0.770551,-1.789533,0.120314,-0.150727,-0.186735,-0.970779,0.054062,-0.002474,0.068191,-1.855398,2.113857,-41.893505,,,,,,,
1505916293.927178,-0.187214,0.183723,1.513823,0.148997,-1.321270,0.190751,-0.182990,-0.182691,-0.965991,-0.035806,0.076383,0.286487,-3.312864,2.463903,-41.784340,,,,,,,
1505916293.947118,-0.191583,0.197313,1.517062,1.054255,0.482866,-0.084261,-0.186719,-0.196035,-0.962656,-0.100467,0.051947,0.358957,-3.768620,2.364317,-41.751457,,,,,,,
1505916293.967107,-0.165619,0.231938,1.520550,2.156073,1.792900,-0.106187,-0.160449,-0.229864,-0.959906,-0.144101,-0.003611,0.088140,-3.001937,0.847752,-41.871788,,,,,,,
1505916293.987077,-0.139080,0.275744,1.530826,2.174183,1.463607,0.292479,-0.133394,-0.272263,-0.952932,-0.082670,0.024262,-0.163234,-1.712810,-1.024176,-41.940365,,,,,,,
1505916294.007018,-0.129146,0.309865,1.544366,1.401056,0.088583,0.485192,-0.122654,-0.304930,-0.944444,-0.063305,0.058135,-0.360442,-1.139283,-1.913279,-41.928730,,,,,,,
1505916294.026983,-0.140670,0.324307,1.552816,0.365884,-0.706332,0.193614,-0.132897,-0.318652,-0.938509,-0.021872,-0.050717,-0.137556,-1.087254,-3.520124,-41.825871,,,,,,,
1505916294.046959,-0.157258,0.319836,1.553309,-0.506660,-0.826080,-0.039371,-0.148668,-0.314411,-0.937573,-0.045912,-0.029522,0.007565,-1.757428,-3.517015,-41.803337,,,,,,,
1505916294.066941,-0.169504,0.307315,1.547370,-0.634783,-0.652133,-0.232934,-0.160790,-0.302500,-0.939489,-0.054802,-0.045812,-0.005060,-2.090468,-3.281051,-41.807194,,,,,,,
1505916294.086907,-0.180074,0.302136,1.542666,-0.046634,-0.485584,-0.127741,-0.170989,-0.297560,-0.939266,-0.041749,-0.007555,-0.015202,-2.879848,-2.635370,-41.805958,,,,,,,
1505916294.106865,-0.181661,0.308214,1.541259,0.424406,0.182097,-0.153027,-0.172150,-0.303357,-0.937198,-0.098419,-0.032275,0.132281,-3.115348,-2.784535,-41.779392,,,,,,,
1505916294.126840,-0.172867,0.319924,1.539687,0.692986,0.427321,-0.185285,-0.163279,-0.314495,-0.935111,-0.004781,0.023830,-0.098809,-2.908908,-3.084133,-41.773232,,,,,,,
1505916294.146805,-0.165867,0.339931,1.538389,1.119051,0.315877,-0.268016,-0.155660,-0.333422,-0.929839,-0.002910,0.049304,-0.057344,-2.496888,-3.949276,-41.727036,,,,,,,
1505916294.166771,-0.154089,0.360666,1.535010,0.819097,0.713259,-0.345594,-0.143605,-0.352897,-0.924576,-0.054012,-0.007347,0.168167,-2.238884,-4.648727,-41.669575,,,,,,,
1505916294.186739,-0.138196,0.372307,1.529142,0.469945,0.505305,-0.360716,-0.128319,-0.363766,-0.922610,0.047371,-0.077137,-0.173460,-1.599522,-5.282927,-41.623417,,,,,,,
1505916294.206704,-0.133530,0.384687,1.524909,0.687321,-0.031816,-0.220216,-0.123403,-0.375269,-0.918665,0.115148,0.013300,-0.251684,-1.341733,-5.486452,-41.606194,,,,,,,
1505916294.226646,-0.132141,0.399247,1.521031,0.639936,0.049577,-0.366732,-0.121395,-0.388724,-0.913322,0.016293,0.057227,0.036887,-1.172427,-6.432281,-41.475632,,,,,,,
1505916294.246637,-0.124943,0.408385,1.511415,0.412314,0.083814,-0.509258,-0.114370,-0.397127,-0.910609,0.027975,0.032854,-0.020497,-1.079149,-6.793502,-41.420536,,,,,,,
1505916294.266603,-0.116663,0.416950,1.501762,0.361767,0.356709,-0.458650,-0.106426,-0.404974,-0.908113,0.116497,0.027716,0.037828,-0.779984,-7.145174,-41.368042,,,,,,,
1505916294.286545,-0.099996,0.424212,1.496495,0.308923,0.943045,-0.141636,-0.090981,-0.411603,-0.906811,0.104470,-0.029407,0.149761,-0.424357,-7.368258,-41.334072,,,,,,,
1505916294.306536,-0.081766,0.428671,1.498349,0.192309,0.813842,0.153547,-0.074285,-0.415663,-0.906480,0.083501,-0.031756,0.088121,0.162934,-7.557969,-41.301666,,,,,,,
1505916294.326494,-0.072564,0.431763,1.502711,0.150144,0.470177,0.190848,-0.065847,-0.418472,-0.905839,0.066457,0.000198,-0.005965,1.062359,-7.801942,-41.242912,,,,,,,
1505916294.346458,-0.064023,0.432285,1.506236,-0.066863,0.564690,0.120508,-0.058093,-0.418946,-0.906151,0.109638,0.082337,0.052040,1.329794,-7.877356,-41.220818,,,,,,,
1505916294.366434,-0.046971,0.425981,1.506494,-0.462338,1.092965,-0.024323,-0.042758,-0.413215,-0.909629,0.138964,0.121818,0.075767,1.669607,-7.835840,-41.216370,,,,,,,
1505916294.386400,-0.016968,0.415953,1.504585,-0.411062,1.575896,-0.055377,-0.015520,-0.404062,-0.914600,0.061785,0.030572,-0.004483,3.114379,-7.285367,-41.233494,,,,,,,
1505916294.406364,0.015349,0.415187,1.506670,0.205805,1.710849,0.225436,0.014044,-0.403361,-0.914933,-0.159033,-0.109548,0.010667,4.128048,-7.108506,-41.175301,,,,,,,
1505916294.426333,0.051304,0.425732,1.513220,0.664735,2.108045,0.288408,0.046704,-0.412988,-0.909538,-0.152860,-0.084251,0.076683,5.162692,-7.246862,-41.034210,,,,,,,
1505916294.446298,0.097903,0.439776,1.515829,0.627173,2.555268,0.124879,0.088446,-0.425737,-0.900514,-0.033529,0.091996,0.101839,7.742200,-8.080946,-40.468918,,,,,,,
1505916294.466240,0.152753,0.445819,1.516994,0.076867,2.827759,0.046122,0.137287,-0.431197,-0.891752,-0.160038,0.089995,0.147062,9.333914,-8.398752,-40.066395,,,,,,,
1505916294.486231,0.205096,0.440124,1.515088,-0.476536,2.334836,-0.275025,0.184252,-0.426052,-0.885738,-0.259402,0.033046,-0.003178,11.540121,-8.409292,-39.485268,,,,,,,
1505916294.506170,0.242421,0.422667,1.507363,-0.860415,1.231393,-0.694156,0.218929,-0.410195,-0.885331,-0.217128,0.001229,-0.182403,13.664195,-7.692951,-38.949780,,,,,,,
1505916294.526145,0.255003,0.408620,1.493100,-0.190571,0.042587,-0.819410,0.231481,-0.397343,-0.887995,-0.033147,0.085301,-0.240713,14.273942,-6.941422,-38.872200,,,,,,,
1505916294.546130,0.258587,0.417213,1.477417,1.113115,-0.228109,-0.345233,0.233780,-0.405214,-0.883826,0.058457,0.171205,-0.156411,14.332582,-6.810230,-38.873833,,,,,,,
1505916294.566095,0.261932,0.456444,1.469689,2.486548,0.214391,0.426037,0.232437,-0.440758,-0.867009,-0.120682,0.173745,-0.121974,14.240248,-8.217525,-38.635014,,,,,,,
1505916294.586052,0.277302,0.516680,1.463350,3.124879,0.873437,0.500228,0.238026,-0.493996,-0.836248,-0.093510,0.341592,-0.193186,14.492676,-10.524943,-37.975845,,,,,,,
1505916294.606028,0.297561,0.575268,1.452945,2.756225,0.520292,0.378087,0.245999,-0.544060,-0.802174,-0.092923,0.369667,-0.306545,14.775402,-11.766080,-37.499649,,,,,,,
1505916294.625982,0.304097,0.622746,1.443778,2.171665,-0.128233,0.350333,0.243222,-0.583268,-0.775010,0.033191,0.328385,-0.303328,0.812206,-16.596197,-34.500832,,,,,,,
1505916294.645960,0.294283,0.665573,1.446396,2.003549,-0.505697,0.965003,0.228146,-0.617510,-0.752749,0.180332,0.285417,-0.352903,0.395274,-18.008495,-33.792587,,,,,,,
1505916294.665907,0.285197,0.708008,1.459525,1.811881,0.166219,1.110348,0.213727,-0.650322,-0.728973,0.208484,0.290016,-0.171982,0.070012,-18.678017,-33.429443,,,,,,,
1505916294.685891,0.281384,0.743593,1.466930,1.500860,-0.053615,0.472076,0.204388,-0.676937,-0.707094,0.127674,0.303814,-0.286543,-0.431759,-20.419083,-32.392525,,,,,,,
1505916294.705858,0.280315,0.769403,1.460265,1.198635,-0.383720,0.000264,0.198731,-0.695706,-0.690289,0.142043,-0.037967,-0.222233,-0.660967,-21.304226,-31.813423,,,,,,,
1505916294.725808,0.277036,0.787781,1.449137,0.844205,-0.725687,-0.232034,0.192937,-0.708789,-0.678523,0.188533,-0.070050,-0.183172,-0.784260,-21.671730,-31.561401,,,,,,,
1505916294.745791,0.266929,0.796130,1.433037,0.435144,-1.297346,-0.477825,0.184502,-0.714655,-0.674706,0.170540,-0.086905,-0.152961,-1.345710,-22.405729,-31.025368,,,,,,,
1505916294.765739,0.246037,0.803613,1.421628,0.525180,-1.436894,-0.154695,0.169059,-0.719869,-0.673207,0.194680,-0.113734,0.065740,-2.055554,-22.690464,-30.778542,,,,,,,
1505916294.785724,0.223382,0.815158,1.416077,0.622366,-1.254369,-0.040561,0.151915,-0.727834,-0.668715,0.119616,-0.054332,0.295577,-2.667343,-22.955189,-30.534332,,,,,,,
1505916294.805689,0.201566,0.827507,1.412193,0.652193,-1.269606,0.047345,0.135480,-0.736246,-0.663013,0.097735,-0.042562,0.361362,-3.048962,-23.145487,-30.354425,,,,,,,
1505916294.825637,0.175928,0.839654,1.414100,0.479170,-1.091297,0.263722,0.116865,-0.744412,-0.657414,-0.102919,-0.027423,0.683277,-4.405930,-23.794876,-29.678150,,,,,,,
1505916294.845622,0.151710,0.845107,1.425013,0.046554,-0.643303,0.444831,0.100297,-0.748042,-0.656029,-0.096742,0.081431,0.577049,-4.958439,-23.937605,-29.475513,,,,,,,
1505916294.865588,0.132620,0.844692,1.435920,-0.092413,-0.500305,0.271365,0.087797,-0.747766,-0.658131,-0.076582,0.058741,0.442586,-5.651268,-23.883741,-29.394405,,,,,,,
1505916294.885529,0.122576,0.844803,1.438088,0.072636,-0.371917,-0.055662,0.081172,-0.747840,-0.658898,-0.050501,-0.002022,0.326790,-5.926754,-23.838192,-29.377119,,,,,,,
1505916294.905521,0.120681,0.850162,1.432627,0.468128,-0.264431,-0.134043,0.079440,-0.751388,-0.655062,-0.032778,-0.087480,0.222765,-6.095907,-23.912485,-29.281975,,,,,,,
1505916294.925487,0.123560,0.868149,1.428773,1.220047,0.164756,0.034757,0.079646,-0.763134,-0.641314,0.017232,-0.095127,0.062304,-6.156772,-24.391403,-28.871347,,,,,,,
1505916294.945453,0.135415,0.903216,1.418321,2.075016,0.153916,-0.231152,0.083578,-0.785322,-0.613420,0.065226,-0.159716,-0.067656,-6.030870,-25.289289,-28.115501,,,,,,,
1505916294.965419,0.156210,0.947170,1.396675,2.329733,0.197282,-0.300052,0.090854,-0.811766,-0.576872,0.021054,-0.112520,-0.006899,-5.850082,-26.218943,-27.290009,,,,,,,
1505916294.985385,0.179044,0.992446,1.375358,2.313498,0.309600,-0.226645,0.097351,-0.837366,-0.537905,0.005585,0.022607,-0.019010,-5.529366,-27.800270,-25.748245,,,,,,,
1505916295.005333,0.211251,1.032351,1.344253,1.973052,0.188008,-0.516435,0.107526,-0.858507,-0.501402,0.092425,0.048708,-0.152864,-5.169847,-28.944960,-24.532896,,,,,,,
1505916295.025318,0.235509,1.068394,1.314030,1.952183,-0.153577,-0.233741,0.112360,-0.876428,-0.468240,-0.004557,0.140482,-0.009421,-4.960315,-29.677273,-23.686615,,,,,,,
1505916295.045283,0.266938,1.105499,1.278862,2.010220,0.153583,-0.414678,0.118354,-0.893688,-0.432797,-0.011070,0.058682,0.220959,-4.792278,-30.843452,-22.183701,,,,,,,
1505916295.065223,0.285208,1.131503,1.265050,0.611270,0.427091,0.508211,0.119661,-0.905052,-0.408119,-0.031099,-0.869880,0.453880,-4.711300,-31.074362,-21.876671,,,,,,,
1505916295.085196,0.264624,1.132734,1.291830,-0.682808,0.357086,0.594297,0.110944,-0.905575,-0.409420,-0.136136,-0.709903,0.097622,-4.695599,-31.673721,-21.003038,,,,,,,
1505916295.105169,0.225684,1.102243,1.339715,-2.156691,-0.011784,0.627171,0.101055,-0.892222,-0.440144,-0.095699,-0.164632,-0.285853,-4.136231,-33.558727,-19.731974,,,,,,,
1505916295.125148,0.188355,1.062530,1.373052,-1.905781,-0.582197,0.174352,0.091124,-0.873590,-0.478056,-0.074065,0.119897,-0.310320,-4.449509,-32.857491,-20.814285,,,,,,,
1505916295.145112,0.169253,1.041379,1.380647,-0.477208,-0.535616,-0.072788,0.085071,-0.863101,-0.497814,-0.072680,0.176181,-0.160679,-4.449509,-32.857491,-20.814285,,,,,,,
1505916295.165075,0.166111,1.049766,1.372809,0.607125,-0.473714,-0.108769,0.082306,-0.867307,-0.490922,0.000137,-0.078967,0.057679,-5.010850,-32.029804,-21.946075,,,,,,,
1505916295.185047,0.155623,1.061845,1.375247,0.472912,-0.325745,0.245812,0.075523,-0.873256,-0.481373,-0.010933,-0.173482,0.103459,-5.255537,-32.358685,-21.399580,,,,,,,
1505916295.205003,0.140525,1.069785,1.387851,0.312880,-0.186721,0.456675,0.067274,-0.877097,-0.475578,-0.011946,-0.093087,-0.045662,-5.473284,-32.467140,-21.179586,,,,,,,
1505916295.224981,0.124073,1.078812,1.400202,0.500386,-0.353075,0.191192,0.058459,-0.881397,-0.468745,0.019101,0.044376,-0.072042,-5.927861,-32.594139,-20.859756,,,,,,,
1505916295.244945,0.120902,1.091950,1.393304,0.935773,-0.534384,-0.178925,0.055571,-0.887527,-0.457392,0.016985,0.089859,-0.058157,-6.108913,-32.825169,-20.441050,,,,,,,
1505916295.264903,0.124424,1.112982,1.374055,1.105607,-0.730787,-0.392218,0.054852,-0.897021,-0.438571,-0.002484,0.138705,0.012103,-6.159919,-33.037079,-20.081186,,,,,,,
1505916295.284864,0.138346,1.129292,1.345392,0.744677,-0.494596,-0.583584,0.058927,-0.904110,-0.423218,-0.023176,0.206798,0.186203,-6.140452,-33.714142,-18.928776,,,,,,,
1505916295.304845,0.156184,1.138415,1.314168,0.447800,-0.605977,-0.538908,0.065181,-0.907971,-0.413933,0.039144,0.091686,0.040719,-5.920570,-34.018871,-18.447502,,,,,,,
1505916295.324792,0.174762,1.144698,1.280069,0.437284,-0.619018,-0.709334,0.071866,-0.910585,-0.407025,-0.053632,0.101137,0.007917,-5.844782,-34.131886,-18.261976,,,,,,,
1505916295.344762,0.195562,1.152687,1.243816,0.593584,-0.576704,-0.596763,0.078900,-0.913858,-0.398294,0.023899,0.013284,0.089410,-5.485485,-34.498375,-17.675371,,,,,,,
1505916295.364743,0.215607,1.163214,1.213496,0.632153,-0.308447,-0.425702,0.084804,-0.918082,-0.387213,0.074773,-0.012338,0.036124,-5.329822,-34.704750,-17.315325,,,,,,,
1505916295.384684,0.230991,1.172838,1.189422,0.558558,-0.411139,-0.323948,0.088724,-0.921854,-0.377244,0.069281,-0.014990,-0.036040,-5.185890,-34.902100,-16.958679,,,,,,,
1505916295.404668,0.240696,1.183739,1.167111,0.675403,-0.551572,-0.253412,0.089980,-0.926024,-0.366583,0.037111,-0.078035,0.023551,-5.071709,-35.244732,-16.270639,,,,,,,
1505916295.424642,0.251124,1.196510,1.146926,0.747523,-0.407218,-0.171788,0.090851,-0.930769,-0.354140,0.033829,-0.131975,-0.154527,-5.054631,-35.489563,-15.734951,,,,,,,
1505916295.444604,0.258031,1.214267,1.125805,1.104463,-0.763886,-0.136462,0.089063,-0.937114,-0.337469,0.044024,-0.110066,-0.261301,-5.067505,-35.619225,-15.434977,,,,,,,
1505916295.464565,0.266890,1.239669,1.098879,1.500811,-0.870774,-0.070479,0.085742,-0.945677,-0.313599,-0.004351,0.033888,-0.039963,-5.259315,-36.149452,-14.078492,,,,,,,
1505916295.484540,0.281769,1.267354,1.069216,1.362375,-0.516934,-0.088450,0.083085,-0.954314,-0.287023,0.017410,0.021239,0.190969,-5.415426,-36.557327,-12.918275,,,,,,,
1505916295.504506,0.295907,1.290750,1.043714,1.126913,-0.490382,0.042032,0.080600,-0.961043,-0.264387,0.102551,-0.044100,0.163252,-5.450963,-36.731037,-12.400201,,,,,,,
1505916295.524473,0.302926,1.306577,1.028931,0.585472,-0.250065,0.026321,0.077906,-0.965297,-0.249265,0.027440,0.055812,0.162488,-5.639669,-37.095951,-11.168335,,,,,,,
1505916295.544433,0.308205,1.312246,1.023489,0.194818,0.164842,0.026487,0.077560,-0.966762,-0.243631,0.049592,0.033534,0.002344,-5.675729,-37.179619,-10.867805,,,,,,,
1505916295.564405,0.318352,1.318084,1.022079,0.386441,0.555973,0.133875,0.078260,-0.968238,-0.237468,0.071276,-0.000894,-0.001500,-5.675729,-37.179619,-10.867805,,,,,,,
1505916295.584371,0.322520,1.332588,1.027014,0.848205,0.309154,0.367549,0.074790,-0.971762,-0.223796,0.054299,0.096091,-0.036534,-5.639111,-37.262596,-10.599347,,,,,,,
1505916295.604337,0.318806,1.355662,1.032697,1.041832,0.090106,0.458418,0.066911,-0.976948,-0.202722,0.025023,0.068882,0.011163,-5.968990,-37.474957,-9.625267,,,,,,,
1505916295.624303,0.287870,1.377103,1.067851,0.884805,0.193564,0.772969,0.054648,-0.981300,-0.184564,0.131799,0.011284,0.006158,-5.968990,-37.474957,-9.625267,,,,,,,
1505916295.644269,0.233925,1.400098,1.125516,1.038275,-0.000569,0.748084,0.039375,-0.985466,-0.165244,-0.172600,0.251198,-0.221353,-6.658723,-37.606953,-8.603808,,,,,,,
1505916295.664208,0.212125,1.422171,1.141970,1.079329,-0.359116,0.142139,0.031176,-0.988976,-0.144759,-0.153552,0.296837,-0.061936,-7.310444,-37.692715,-7.646144,,,,,,,
1505916295.684202,0.239124,1.447041,1.110847,1.362527,-0.092690,0.129374,0.029237,-0.992352,-0.119928,-0.014314,-0.063648,0.003961,-7.438136,-37.794369,-6.993364,,,,,,,
1505916295.704167,0.255636,1.473091,1.092943,1.188865,0.011650,0.248914,0.024666,-0.995231,-0.094379,-0.027352,-0.154244,0.123783,-7.535766,-37.949371,-5.975327,,,,,,,
1505916295.724135,0.247397,1.494531,1.103478,0.931157,0.126550,0.347666,0.018658,-0.997093,-0.073872,-0.049786,0.054527,0.139408,-7.837057,-38.072380,-4.660622,,,,,,,
1505916295.744101,0.220089,1.510920,1.136291,0.607917,0.361497,0.211137,0.013064,-0.998208,-0.058397,-0.144961,0.076501,0.090501,-7.837057,-38.072380,-4.660622,,,,,,,
1505916295.764066,0.262050,1.518549,1.099192,0.352255,0.176396,-0.102090,0.013529,-0.998635,-0.050440,-0.056009,-0.050910,-0.048223,-8.101034,-38.118370,-3.743039,,,,,,,
1505916295.784033,0.318559,1.525361,1.044629,0.376700,0.099023,0.083939,0.014225,-0.998968,-0.043135,0.175197,-0.170252,0.088408,-8.033905,-38.156639,-3.489185,,,,,,,
1505916295.803996,0.252490,1.534612,1.114296,0.426549,0.218140,0.322711,0.009037,-0.999345,-0.035029,0.114528,-0.153715,-0.008351,-8.127234,-38.155071,-3.284139,,,,,,,
1505916295.823949,0.191195,1.544284,1.177442,0.445886,-0.080379,0.055426,0.005038,-0.999649,-0.026026,-0.039416,0.008926,-0.177129,-8.377574,-38.131847,-2.902649,,,,,,,
1505916295.843932,0.569869,1.552102,0.789529,0.581989,-0.657259,-0.428105,0.010086,-0.999825,-0.015739,0.003891,-0.060783,-0.142479,-8.286539,-38.181465,-2.481112,,,,,,,
1505916295.863898,1.386106,1.556165,-0.037149,0.698027,-0.409293,0.021750,0.014382,-0.999893,-0.002687,0.369041,-0.351471,0.074205,-8.083840,-38.250248,-2.053540,,,,,,,
1505916295.883864,2.404391,1.556687,-1.062559,0.626965,-0.275644,0.283448,0.009484,-0.999900,0.010445,0.065406,-0.182381,0.111060,-8.209029,-38.255840,-1.322815,,,,,,,
1505916295.903830,2.876256,1.551413,-1.537560,0.246701,-0.087810,0.193417,0.005083,-0.999812,0.018704,0.011702,-0.162511,0.169101,-8.400749,-38.226482,-0.900198,,,,,,,
1505916295.923797,-3.087630,1.551929,-1.859193,-0.103593,-0.078073,0.459124,-0.001018,-0.999822,0.018839,0.165782,-0.210841,0.150503,-8.522173,-38.201691,-0.806536,,,,,,,
1505916295.943763,-2.261411,1.548219,-2.684946,-0.249401,0.100710,1.038726,-0.017403,-0.999745,0.014381,0.175056,-0.201137,0.073250,-9.101147,-38.064651,-0.947868,,,,,,,
1505916295.963727,-1.832234,1.526215,-3.111029,-0.066188,0.192045,1.364877,-0.043052,-0.999006,0.011519,-0.042306,-0.132952,-0.065627,-10.008736,-37.831596,-1.114664,,,,,,,
1505916295.983683,-1.770040,1.498032,3.124428,0.407512,1.222761,1.461744,-0.071262,-0.997354,0.014389,-0.076550,-0.149375,-0.126130,-10.521903,-37.690983,-1.151682,,,,,,,
1505916296.003637,-1.804648,1.464064,-3.113852,0.479541,-0.184561,1.651818,-0.103630,-0.994310,0.024686,0.046913,0.029039,-0.014523,-12.191393,-37.190079,-0.956450,,,,,,,
1505916296.023601,-1.781706,1.435906,3.135983,-0.072281,-0.510205,1.254579,-0.131502,-0.990916,0.028154,-0.062742,0.445781,0.308669,-13.320488,-36.807278,-0.660162,,,,,,,
1505916296.043590,-1.711246,1.412927,3.055213,-0.490339,-0.403874,1.297702,-0.155666,-0.987565,0.022008,-0.126011,0.320603,0.185771,-13.771643,-36.641132,-0.645352,,,,,,,
1505916296.063558,-1.637819,1.388523,2.975779,-0.551134,-0.226255,1.256642,-0.180858,-0.983434,0.012140,-0.096089,-0.012644,0.005591,-15.165810,-36.077713,-1.021790,,,,,,,
1505916296.083519,-1.589189,1.367132,2.921101,-0.434128,-0.241653,0.963802,-0.202225,-0.979332,0.003720,-0.055039,0.121727,0.021823,-16.006939,-35.703117,-1.308625,,,,,,,
1505916296.103476,-1.558807,1.352741,2.884713,-0.359508,-0.313060,0.580410,-0.216316,-0.976320,-0.002594,0.008293,0.215578,0.029571,-16.336161,-35.549351,-1.421449,,,,,,,
1505916296.123431,-1.533314,1.344756,2.854663,-0.315923,-0.075617,0.297223,-0.223963,-0.974561,-0.008399,0.009547,0.243559,0.100348,-16.928726,-35.259808,-1.676718,,,,,,,
1505916296.143406,-1.506873,1.341212,2.827534,-0.342083,-0.010870,0.082192,-0.227108,-0.973761,-0.014537,-0.049366,0.074362,0.054256,-17.057320,-35.190033,-1.832108,,,,,,,
1505916296.163391,-1.471784,1.341353,2.791322,-0.442056,0.012152,-0.108900,-0.226322,-0.973793,-0.022482,-0.059506,0.022377,0.056524,-17.101032,-35.159004,-2.011545,,,,,,,
1505916296.183355,-1.431965,1.343849,2.752894,-0.372149,0.215769,-0.196145,-0.222839,-0.974358,-0.031137,-0.010956,-0.025780,0.002069,-16.975117,-35.189846,-2.483371,,,,,,,
1505916296.203322,-1.397042,1.346303,2.720547,-0.383815,0.009300,-0.155691,-0.219261,-0.974907,-0.038486,0.038612,-0.071876,-0.059644,-16.864182,-35.225388,-2.723696,,,,,,,
1505916296.223277,-1.370098,1.345078,2.699001,-0.125434,0.406027,0.147047,-0.219314,-0.974634,-0.044617,0.128982,-0.083731,-0.012619,-16.783970,-35.246765,-2.934431,,,,,,,
1505916296.243231,-1.366245,1.339139,2.696224,-0.149551,-0.173220,0.324404,-0.224805,-0.973287,-0.046636,0.023175,-0.087031,-0.054163,-16.933529,-35.151207,-3.208638,,,,,,,
1505916296.263207,-1.387930,1.326474,2.710267,-0.301148,-0.293476,0.278888,-0.237866,-0.970301,-0.043989,-0.060001,-0.011098,0.055174,-17.422783,-34.927567,-3.026370,,,,,,,
1505916296.283188,-1.367877,1.320120,2.689365,-0.301301,0.206300,0.260482,-0.242970,-0.968745,-0.049991,-0.054241,0.044306,0.136600,-17.525452,-34.870689,-3.088743,,,,,,,
1505916296.303155,-1.344866,1.315183,2.679215,-0.071708,0.898237,0.172852,-0.246413,-0.967508,-0.056639,-0.016481,0.122873,0.073546,-17.749037,-34.715244,-3.531375,,,,,,,
1505916296.323113,-1.324204,1.313193,2.682043,0.092467,1.399797,0.071903,-0.247057,-0.967003,-0.062188,-0.035643,0.064919,0.059121,-17.761673,-34.666725,-3.922736,,,,,,,
1505916296.343087,-1.300935,1.313983,2.692112,0.172021,1.814177,-0.065420,-0.244807,-0.967204,-0.067716,-0.052480,0.074580,0.027127,-17.723135,-34.660694,-4.144127,,,,,,,
1505916296.363053,-1.264333,1.316329,2.682902,-0.265579,0.873935,-0.169022,-0.240001,-0.967798,-0.075944,-0.053914,-0.131049,-0.265670,-17.418798,-34.710930,-4.937991,,,,,,,
1505916296.383019,-1.279899,1.322268,2.707868,0.735223,-0.146732,-0.185258,-0.235643,-0.969275,-0.070549,0.010363,0.017264,-0.452507,-17.219349,-34.789589,-5.081878,,,,,,,
1505916296.402986,-1.367771,1.330658,2.784288,1.147328,-0.707363,-0.161542,-0.232952,-0.971305,-0.047956,0.063991,0.090812,-0.347216,-17.169994,-34.861351,-4.745985,,,,,,,
1505916296.422952,-1.502819,1.340086,2.912732,1.812396,-0.352167,-0.348199,-0.228141,-0.973504,-0.015532,-0.043450,0.084512,-0.098817,-17.031246,-35.113819,-3.098948,,,,,,,
1505916296.442899,-1.685303,1.347588,3.099193,2.122941,0.032689,-0.438267,-0.219910,-0.975192,0.025292,-0.070755,-0.101666,-0.271035,-16.834259,-35.287453,-2.012564,,,,,,,
1505916296.462884,-1.873642,1.351303,-2.996381,1.912678,-0.275947,-0.687709,-0.207827,-0.976008,0.064937,-0.088529,-0.277303,-0.302821,-16.592583,-35.447407,-0.902567,,,,,,,
1505916296.482850,-2.020881,1.353863,-2.845083,1.125005,0.038454,-0.737645,-0.193801,-0.976562,0.093637,0.084563,0.175705,0.545691,-15.867990,-35.773006,1.070509,,,,,,,
1505916296.502800,-2.072453,1.361323,-2.788950,-0.033752,0.380458,-0.486549,-0.182323,-0.978141,0.099996,0.171169,-0.122583,0.455698,-15.392012,-35.964645,1.509097,,,,,,,
1505916296.522783,-2.054112,1.367393,-2.792107,-0.208613,0.601743,-0.140336,-0.178866,-0.979385,0.093875,0.174060,-0.125001,0.268445,-15.197839,-36.055298,1.299348,,,,,,,
1505916296.542749,-2.028879,1.373021,-2.823288,-0.505205,-0.607796,-0.116202,-0.176231,-0.980506,0.086893,0.052452,-0.062631,-0.119791,-15.084492,-36.113708,0.951359,,,,,,,
1505916296.562702,-2.020704,1.385034,-2.841327,-0.277621,-0.343048,-0.927184,-0.166317,-0.982796,0.080321,-0.527424,0.872093,-0.042250,-14.984002,-36.158951,0.810586,,,,,,,
1505916296.582681,-2.077975,1.411194,-2.797864,-0.271354,-0.855533,-1.369335,-0.138920,-0.987291,0.077192,-0.427532,0.620332,-0.174498,-14.494051,-36.359707,0.735627,,,,,,,
1505916296.602636,-2.155561,1.433516,-2.730379,-0.064783,-0.299102,-1.137699,-0.114111,-0.990592,0.075541,-0.033899,-0.400232,-0.003932,-13.043728,-36.903976,0.777612,,,,,,,
1505916296.622572,-2.266155,1.448242,-2.625915,0.180480,-0.518655,-0.916936,-0.093865,-0.992500,0.078319,0.118538,-0.215279,-0.346630,-12.441375,-37.110344,0.825467,,,,,,,
1505916296.642540,-2.400297,1.458367,-2.502635,0.132750,-0.557346,-0.848912,-0.075758,-0.993686,0.082753,0.021589,-0.229214,-0.021489,-11.921196,-37.275959,1.017444,,,,,,,
1505916296.662506,-2.531045,1.467732,-2.373542,0.043821,0.128041,-0.811040,-0.058984,-0.994694,0.084295,0.027383,0.079487,0.185908,-10.954493,-37.562920,1.293460,,,,,,,
1505916296.682449,-2.647702,1.475571,-2.252651,-0.112183,0.170518,-0.641432,-0.045074,-0.995470,0.083718,0.062148,0.098772,-0.029962,-12.462951,-36.840958,4.177215,,,,,,,
1505916296.702440,-2.743075,1.482923,-2.159212,-0.206356,-0.302313,-0.515259,-0.034056,-0.996142,0.080883,0.061262,0.097719,-0.088513,-12.117158,-36.964203,4.105198,,,,,,,
1505916296.722404,-2.824349,1.491090,-2.082886,-0.316062,-0.141458,-0.403564,-0.024838,-0.996825,0.075649,0.034085,0.001006,0.064167,-11.541704,-37.163769,3.959025,,,,,,,
1505916296.742355,-2.881782,1.499771,-2.022328,-0.332628,0.252395,-0.286694,-0.018231,-0.997479,0.068584,0.009610,0.090084,0.081395,-11.326747,-37.249535,3.769271,,,,,,,
1505916296.762340,-2.915242,1.505829,-1.987001,-0.237729,-0.052198,-0.133743,-0.014570,-0.997890,0.063265,0.065336,-0.006794,-0.093417,-11.142075,-37.332645,3.486866,,,,,,,
1505916296.782305,-2.920194,1.511154,-1.985063,-0.263450,-0.170807,-0.017876,-0.013089,-0.998222,0.058152,0.059003,-0.185952,-0.017610,-11.032803,-37.384186,3.275752,,,,,,,
1505916296.802261,-2.869764,1.514972,-2.038129,-0.198741,-0.085363,0.153310,-0.014981,-0.998442,0.053747,0.100308,-0.258272,-0.032689,-11.026690,-37.389446,3.235987,,,,,,,
1505916296.822237,-2.809256,1.517632,-2.095996,-0.149685,0.236140,0.083787,-0.017337,-0.998587,0.050231,-0.053693,-0.031747,0.004960,-11.146098,-37.372025,3.021001,,,,,,,
1505916296.842204,-2.774848,1.520585,-2.125910,-0.187672,0.239787,-0.029941,-0.017997,-0.998740,0.046852,-0.080086,0.119772,-0.015007,-11.217534,-37.366982,2.811766,,,,,,,
1505916296.862166,-2.772296,1.525138,-2.120569,-0.203209,0.432556,-0.108123,-0.016475,-0.998958,0.042566,0.013301,0.076442,-0.006036,-11.215285,-37.371273,2.763330,,,,,,,
1505916296.882137,-2.789923,1.529845,-2.096127,-0.191283,0.291479,-0.172090,-0.014102,-0.999162,0.038434,0.022739,0.010209,-0.051038,-11.135549,-37.420055,2.401973,,,,,,,
1505916296.902096,-2.846791,1.533381,-2.036799,-0.111782,0.065144,-0.163341,-0.010868,-0.999300,0.035793,0.044682,-0.149626,-0.031017,-10.993747,-37.474758,2.193238,,,,,,,
1505916296.922069,-2.908242,1.536545,-1.974429,-0.130077,0.019286,-0.141236,-0.007919,-0.999413,0.033317,0.015533,-0.105781,-0.025291,-10.963896,-37.484928,2.168754,,,,,,,
1505916296.942018,-2.978849,1.539730,-1.903505,-0.144824,0.050189,-0.162557,-0.005033,-0.999517,0.030651,0.004972,-0.074335,0.000934,-10.828218,-37.531384,2.043353,,,,,,,
1505916296.961992,-3.038431,1.535508,-1.840853,-0.208739,0.222488,-0.205801,-0.003633,-0.999377,0.035093,0.004778,0.014255,0.057360,-10.731793,-37.553146,2.149437,,,,,,,
1505916296.981966,3.114496,1.539947,-1.704972,-0.196780,0.270484,-0.233286,0.000836,-0.999524,0.030833,0.015476,-0.009585,-0.064097,-10.572854,-37.610065,1.930750,,,,,,,
1505916297.001909,2.975087,1.542348,-1.562591,-0.101272,0.120430,-0.160793,0.004714,-0.999595,0.028051,0.045090,-0.044121,-0.124197,-10.490501,-37.637882,1.835601,,,,,,,
1505916297.021898,2.683713,1.542738,-1.270482,-0.172982,-0.019206,-0.112817,0.012402,-0.999606,0.025165,0.036976,-0.079037,0.003430,-10.360251,-37.679489,1.718017,,,,,,,
1505916297.041852,2.554832,1.546027,-1.141946,-0.254047,-0.003778,-0.037169,0.013712,-0.999693,0.020624,0.057210,-0.056368,0.035208,-10.065658,-37.766407,1.552899,,,,,,,
1505916297.061831,2.446979,1.550680,-1.032359,-0.274347,0.118867,0.099462,0.012875,-0.999798,0.015454,0.080615,-0.011341,0.015063,-10.050249,-37.777962,1.359589,,,,,,,
1505916297.081798,1.851183,1.548581,-0.434423,-0.227379,0.083500,0.185166,0.021346,-0.999753,0.006147,-0.011809,0.033124,-0.006879,-9.726478,-37.875809,0.921451,,,,,,,
1505916297.101759,1.703298,1.553212,-0.284225,-0.180925,0.156854,0.206235,0.017429,-0.999845,0.002323,-0.017033,0.066206,0.004254,-9.833648,-37.851093,0.790235,,,,,,,
1505916297.121731,1.633473,1.557310,-0.210266,0.004582,0.237000,0.199260,0.013459,-0.999909,0.000845,-0.016343,0.072785,-0.046438,-9.988451,-37.813404,0.638557,,,,,,,
1505916297.141696,2.032422,1.559985,-0.605434,0.308268,0.142070,0.169445,0.009680,-0.999942,0.004815,-0.024328,0.057040,-0.155862,-10.176615,-37.762745,0.664823,,,,,,,
1505916297.161663,2.590479,1.556351,-1.161497,0.365175,0.136307,0.062653,0.007564,-0.999896,0.012306,-0.036769,0.057406,0.042564,-10.259895,-37.736553,0.847059,,,,,,,
1505916297.181629,2.724841,1.551697,-1.291061,0.181627,0.281046,-0.047882,0.007731,-0.999818,0.017463,-0.052119,0.028779,0.091927,-10.297214,-37.720711,1.070368,,,,,,,
1505916297.201595,2.702101,1.548770,-1.264707,0.100746,0.113180,-0.107210,0.009371,-0.999757,0.019932,-0.017199,-0.017165,-0.013065,-10.245247,-37.732136,1.162323,,,,,,,
1505916297.221541,2.648412,1.546215,-1.211292,0.073544,-0.075060,-0.106366,0.011636,-0.999698,0.021650,0.006781,-0.062436,0.029482,-10.160564,-37.753021,1.225773,,,,,,,
1505916297.241529,2.608007,1.544679,-1.171962,0.029291,-0.041274,-0.075368,0.013282,-0.999659,0.022484,-0.015907,-0.029653,0.027473,-10.106160,-37.766178,1.269503,,,,,,,
1505916297.261493,2.538352,1.544049,-1.102248,-0.054728,0.031023,-0.111848,0.015172,-0.999642,0.022023,-0.021749,0.006951,0.011058,-10.061986,-37.777287,1.289818,,,,,,,
1505916297.281446,2.434601,1.543678,-0.997658,-0.070682,0.019301,-0.113085,0.017613,-0.999632,0.020616,0.032299,-0.039308,-0.051668,-9.935265,-37.813080,1.221296,,,,,,,
1505916297.301428,2.382155,1.543671,-0.945879,-0.032321,-0.075740,-0.007402,0.018674,-0.999632,0.019670,0.054263,-0.036424,-0.084947,-9.883297,-37.827816,1.186260,,,,,,,
1505916297.321393,2.387513,1.545748,-0.955193,-0.113546,-0.279611,0.129038,0.017147,-0.999686,0.018256,0.050114,-0.120507,-0.068641,-9.878092,-37.829437,1.177812,,,,,,,
1505916297.341352,2.398880,1.551586,-0.974383,-0.228079,-0.377205,0.259494,0.012991,-0.999816,0.014150,-0.041998,-0.006746,0.081553,-10.035788,-37.789719,1.118285,,,,,,,
1505916297.361326,2.531880,1.558057,-1.113318,-0.133902,-0.255965,0.291847,0.007295,-0.999919,0.010444,-0.069658,0.032100,0.074929,-10.035788,-37.789719,1.118285,,,,,,,
1505916297.381292,2.975227,1.561361,-1.560848,-0.030787,-0.268662,0.323445,0.001562,-0.999955,0.009305,0.027231,-0.123030,-0.206159,-10.345524,-37.709152,1.009977,,,,,,,
1505916297.401237,-2.695420,1.557897,-2.181584,0.184801,-0.511923,0.372532,-0.005566,-0.999917,0.011636,0.023419,-0.005821,-0.129877,-10.637317,-37.625950,1.079705,,,,,,,
1505916297.421225,-2.476715,1.551147,-2.410070,0.184346,-0.419113,0.305617,-0.012122,-0.999807,0.015463,-0.019769,0.070592,0.056528,-10.834949,-37.564003,1.257028,,,,,,,
1505916297.441190,-2.367556,1.544678,-2.524831,0.138541,-0.073669,0.304214,-0.018256,-0.999659,0.018675,-0.030298,0.059931,0.187898,-11.060167,-37.489616,1.493865,,,,,,,
1505916297.461158,-2.342290,1.540775,-2.550451,0.096041,-0.110865,0.056341,-0.021518,-0.999549,0.020928,0.037449,0.134407,-0.062493,-11.345503,-37.396294,1.681381,,,,,,,
1505916297.481123,-2.397360,1.540506,-2.501083,0.039560,-0.310280,-0.066219,-0.020516,-0.999541,0.022279,0.046242,0.039382,-0.017899,-11.345503,-37.396294,1.681381,,,,,,,
1505916297.501090,-2.453640,1.541110,-2.450158,0.037582,-0.206993,-0.100950,-0.018847,-0.999559,0.022931,-0.034559,0.084658,0.037799,-11.297952,-37.403252,1.839405,,,,,,,
1505916297.521055,-2.551009,1.541185,-2.353899,0.112807,0.032434,-0.114050,-0.016486,-0.999562,0.024592,-0.001794,-0.020000,-0.006998,-11.175625,-37.434250,1.952660,,,,,,,
1505916297.541023,-2.654817,1.539184,-2.248371,0.198385,0.104677,-0.065980,-0.014785,-0.999500,0.027936,0.013626,-0.034725,0.015048,-11.175625,-37.434250,1.952660,,,,,,,
1505916297.560987,-2.725521,1.535419,-2.175337,0.219882,0.138453,-0.004603,-0.014295,-0.999374,0.032352,0.000715,-0.024933,0.098782,-9.892273,-38.606197,-0.706024,,,,,,,
1505916297.580954,-2.766249,1.532366,-2.129957,0.143995,0.288315,-0.027714,-0.014085,-0.999262,0.035746,0.009995,-0.031042,0.035467,-9.868869,-38.615154,-0.518970,,,,,,,
1505916297.600893,-2.785090,1.529930,-2.101480,0.133007,0.608148,0.006278,-0.014258,-0.999165,0.038286,0.010169,-0.031139,0.032926,-9.868869,-38.615154,-0.518970,,,,,,,
1505916297.620877,-2.775866,1.528947,-2.098934,0.005114,0.494060,0.020890,-0.014962,-0.999124,0.039070,0.028832,-0.052252,-0.062599,-9.851592,-38.619102,-0.552405,,,,,,,
1505916297.640853,-2.740519,1.529833,-2.129202,-0.126390,0.213109,0.022693,-0.015988,-0.999161,0.037702,0.014065,-0.028488,0.225603,-9.879434,-38.610619,-0.641038,,,,,,,
1505916297.660799,-2.680118,1.532617,-2.179116,-0.210043,0.624281,0.045021,-0.016996,-0.999271,0.034178,0.004881,-0.073559,0.080065,-9.884337,-38.607990,-0.719105,,,,,,,
1505916297.680783,-2.550560,1.537780,-2.295410,-0.363292,0.749315,0.068420,-0.018394,-0.999455,0.027410,0.014961,-0.128353,0.079828,-9.913972,-38.588840,-1.186817,,,,,,,
1505916297.700752,-2.334486,1.541483,-2.491338,-0.314039,1.104185,0.138326,-0.021169,-0.999570,0.020270,0.025259,-0.033434,-0.064734,-9.962868,-38.559639,-1.639989,,,,,,,
1505916297.720702,-2.095917,1.542292,-2.709668,-0.251942,0.937295,0.159110,-0.024660,-0.999594,0.014288,0.008776,-0.047434,-0.071447,-9.999544,-38.539745,-1.868482,,,,,,,
1505916297.740680,-1.882928,1.540357,-2.907601,-0.193892,0.647703,0.271234,-0.028964,-0.999537,0.009346,0.079227,-0.148367,-0.021416,-10.140551,-38.471558,-2.429544,,,,,,,
1505916297.760651,-1.760540,1.532309,-3.018319,-0.107676,0.650920,0.528802,-0.037787,-0.999259,0.007257,0.083487,-0.152108,0.002890,-10.313771,-38.414875,-2.591847,,,,,,,
1505916297.780611,-1.582614,1.521394,3.096317,-0.409249,0.219409,0.596152,-0.049379,-0.998780,0.000584,0.042512,-0.013702,-0.173588,-10.586818,-38.328598,-2.762610,,,,,,,
1505916297.800564,-1.390850,1.509196,2.899838,-0.717719,-0.519793,0.526663,-0.060567,-0.998103,-0.011018,-0.052729,0.804668,-0.753127,-11.237051,-38.098198,-3.324172,,,,,,,
1505916297.820549,-1.165717,1.500494,2.638688,-0.815236,-2.207098,0.043607,-0.064559,-0.997530,-0.027683,0.284042,-0.380186,-0.067181,-11.501441,-37.989750,-3.645525,,,,,,,
1505916297.840517,-1.110642,1.493367,2.549459,-0.291633,-1.188455,0.242442,-0.069306,-0.997004,-0.034351,-0.242614,0.058298,0.360950,-11.652502,-37.934361,-3.741365,,,,,,,
1505916297.860470,-1.085168,1.484762,2.514879,-0.366140,-0.052349,0.300254,-0.075993,-0.996301,-0.040108,-0.098201,0.081461,0.138542,-12.082685,-37.798183,-3.755026,,,,,,,
1505916297.880449,-1.023650,1.477447,2.457762,-0.434835,0.403258,0.149442,-0.079606,-0.995646,-0.048495,-0.120940,0.085337,0.029345,-12.220078,-37.730358,-3.985468,,,,,,,
1505916297.900392,-0.972788,1.472879,2.410476,-0.235674,0.101355,0.001018,-0.080795,-0.995210,-0.055039,-0.042801,0.279954,-0.123107,-12.284250,-37.677826,-4.274648,,,,,,,
1505916297.920376,-0.943152,1.472684,2.381520,-0.051700,0.040543,-0.101062,-0.079286,-0.995191,-0.057523,0.033662,0.170835,0.014661,-12.263349,-37.651947,-4.553603,,,,,,,
1505916297.940346,-0.933282,1.474218,2.373798,0.021131,0.155352,-0.066734,-0.077487,-0.995340,-0.057394,0.043781,0.074411,0.043539,-12.204008,-37.668774,-4.573809,,,,,,,
1505916297.960298,-0.908836,1.474480,2.352714,-0.137370,0.142428,-0.099889,-0.075856,-0.995365,-0.059111,-0.028713,0.089710,0.064146,-12.155343,-37.682121,-4.593424,,,,,,,
1505916297.980252,-0.861797,1.474871,2.307103,-0.138828,0.091581,-0.139830,-0.072697,-0.995403,-0.062359,-0.048839,0.025020,0.017162,-12.004824,-37.706581,-4.784561,,,,,,,
1505916298.000227,-0.823711,1.472096,2.273779,-0.334568,0.437508,0.143822,-0.072296,-0.995133,-0.066958,-0.079849,-0.093368,0.067996,-11.935688,-37.715199,-4.888477,,,,,,,
1505916298.020204,-0.740829,1.453196,2.214047,-1.347511,1.642354,0.554142,-0.079186,-0.993093,-0.086579,-0.281563,0.266973,0.124100,-11.977499,-37.663952,-5.173038,,,,,,,
1505916298.040154,-0.609114,1.432113,2.091358,-0.997385,-0.758496,-0.381420,-0.079092,-0.990399,-0.113378,0.091193,-0.134037,-0.144908,-12.161185,-37.316425,-6.955873,,,,,,,
1505916298.060133,-0.485894,1.424695,1.948965,-0.578313,-0.499036,-0.663299,-0.067987,-0.989346,-0.128732,0.007104,-0.166248,0.004846,-11.851610,-37.323887,-7.433765,,,,,,,
1505916298.080084,-0.405209,1.426251,1.876965,0.078811,0.764336,-0.449338,-0.056783,-0.989571,-0.132378,0.056814,-0.336936,-0.116783,-11.634527,-37.361969,-7.583882,,,,,,,
1505916298.100060,-0.355419,1.435444,1.831074,0.373481,-0.221509,-0.487792,-0.046957,-0.990854,-0.126506,0.023077,-0.017371,-0.078130,-10.996778,-37.544079,-7.635911,,,,,,,
1505916298.120042,-0.299798,1.443500,1.762781,0.121237,-0.690385,-0.592799,-0.037493,-0.991909,-0.121290,-0.034819,0.021129,0.066221,-10.756878,-37.664974,-7.377909,,,,,,,
1505916298.139982,-0.229226,1.445302,1.680757,-0.144918,-0.484324,-0.439999,-0.028440,-0.992136,-0.121891,0.053358,-0.133703,0.123951,-10.413234,-37.800797,-7.173464,,,,,,,
1505916298.159970,-0.191569,1.442586,1.634238,-0.213911,-0.399650,-0.162519,-0.024344,-0.991792,-0.125521,0.035865,-0.029066,0.085222,-10.150741,-37.865345,-7.209175,,,,,,,
1505916298.179941,-0.179964,1.437998,1.615541,-0.247914,-0.308902,-0.031516,-0.023700,-0.991195,-0.130270,-0.060620,0.241210,0.058920,-10.121157,-37.852848,-7.315622,,,,,,,
1505916298.199891,-0.189992,1.434640,1.620461,-0.076063,-0.290132,0.120631,-0.025634,-0.990745,-0.133294,-0.048798,0.267997,-0.017845,-10.136639,-37.836681,-7.377544,,,,,,,
1505916298.219867,-0.230204,1.433207,1.655029,-0.001577,-0.333385,0.307165,-0.031296,-0.990549,-0.133538,0.070496,-0.120031,-0.023933,-10.371923,-37.771229,-7.385893,,,,,,,
1505916298.239841,-0.290969,1.430744,1.709910,-0.043158,-0.234177,0.444599,-0.040047,-0.990209,-0.133727,0.085534,-0.189967,0.077514,-10.606616,-37.716255,-7.333348,,,,,,,
1505916298.259782,-0.350069,1.427295,1.771473,0.017136,0.241112,0.459606,-0.049047,-0.989721,-0.134335,0.023519,-0.153620,0.093808,-10.880257,-37.640583,-7.321249,,,,,,,
1505916298.279751,-0.407534,1.427131,1.833281,0.226440,0.125975,0.390550,-0.056745,-0.989698,-0.131446,0.016645,0.100156,0.044913,-11.342528,-37.504711,-7.316943,,,,,,,
1505916298.299740,-0.463432,1.427689,1.892138,0.143281,0.158821,0.378470,-0.063754,-0.989778,-0.127577,0.021655,0.008882,0.101713,-11.542719,-37.465336,-7.204755,,,,,,,
1505916298.319690,-0.570462,1.435353,2.004622,0.170785,0.292867,0.370887,-0.072919,-0.990842,-0.113648,-0.049365,0.018368,-0.020385,-11.735211,-37.416050,-7.149693,,,,,,,
1505916298.339670,-0.657925,1.436696,2.094217,0.567808,-0.134507,0.537755,-0.081754,-0.991022,-0.105791,0.060468,-0.005789,0.014375,-12.232496,-37.375084,-6.501032,,,,,,,
1505916298.359615,-0.787013,1.438283,2.221952,0.563548,-0.012501,0.590943,-0.093578,-0.991233,-0.093276,0.042613,-0.116250,0.124404,-12.565138,-37.328857,-6.121083,,,,,,,
1505916298.379579,-0.891299,1.435699,2.328656,0.402175,0.010872,0.524790,-0.104771,-0.990888,-0.084638,-0.026958,-0.235308,-0.039401,-13.004107,-37.241112,-5.725993,,,,,,,
1505916298.399563,-0.984936,1.435927,2.419290,0.588467,-0.273291,0.215750,-0.112038,-0.990919,-0.074346,-0.051246,-0.113009,-0.068461,-13.440066,-37.151058,-5.287468,,,,,,,
1505916298.419538,-1.080955,1.441922,2.509462,0.681996,-0.348338,-0.063665,-0.113405,-0.991707,-0.060466,-0.049742,-0.084449,0.035701,-13.557720,-37.183708,-4.728020,,,,,,,
1505916298.439479,-1.149880,1.450096,2.572410,0.413692,-0.313862,-0.276042,-0.109897,-0.992725,-0.049198,-0.033825,-0.077939,0.071445,-13.541039,-37.225830,-4.435298,,,,,,,
1505916298.459469,-1.167742,1.457905,2.583482,0.106315,-0.356710,-0.340255,-0.103624,-0.993635,-0.044185,0.021975,-0.134127,0.037960,-13.272915,-37.383503,-3.885566,,,,,,,
1505916298.479413,-1.150503,1.463287,2.559022,-0.082304,-0.346747,-0.279206,-0.097963,-0.994227,-0.043782,0.005632,-0.102758,0.032048,-13.111136,-37.450878,-3.784712,,,,,,,
1505916298.499391,-1.095535,1.465975,2.496524,-0.346003,-0.384589,-0.258521,-0.093034,-0.994511,-0.047876,-0.016311,-0.084911,0.010324,-12.929293,-37.514381,-3.781382,,,,,,,
1505916298.519342,-0.995528,1.465828,2.390951,-0.533024,-0.156257,-0.286107,-0.087912,-0.994496,-0.057004,-0.011423,-0.104335,0.011060,-12.714226,-37.559116,-4.056554,,,,,,,
1505916298.539335,-0.894916,1.466128,2.287068,-0.344115,-0.192722,-0.363379,-0.081509,-0.994527,-0.065359,0.001095,-0.133906,-0.048502,-12.552458,-37.584496,-4.316879,,,,,,,
1505916298.559302,-0.818342,1.469060,2.206110,-0.173640,-0.117962,-0.361909,-0.074141,-0.994829,-0.069410,0.017806,-0.153150,0.033979,-12.290309,-37.649124,-4.503987,,,,,,,
1505916298.579268,-0.757420,1.470105,2.144184,-0.214052,-0.109179,-0.212161,-0.069063,-0.994935,-0.073040,0.099763,-0.019561,-0.165059,-12.002164,-37.724152,-4.650882,,,,,,,
1505916298.599226,-0.703524,1.467162,2.082613,-0.367510,-0.380132,-0.085125,-0.066922,-0.994635,-0.078886,0.064908,0.043051,-0.080965,-11.915770,-37.738857,-4.752608,,,,,,,
1505916298.619200,-0.665176,1.461608,2.047647,-0.306772,0.525892,0.124186,-0.067257,-0.994045,-0.085740,0.059994,0.151165,0.145630,-11.893268,-37.718815,-4.963413,,,,,,,
1505916298.639166,-0.663881,1.452260,2.056206,-0.356661,0.265057,0.405052,-0.072869,-0.992983,-0.093141,-0.036415,0.117815,-0.186415,-12.028296,-37.612976,-5.420158,,,,,,,
1505916298.659131,-0.680580,1.441970,2.069250,-0.351802,-0.420422,0.350612,-0.080839,-0.991713,-0.099848,-0.016786,0.213057,-0.167882,-12.249590,-37.510078,-5.633446,,,,,,,
1505916298.679090,-0.684112,1.433149,2.067230,-0.338064,-0.022021,0.191380,-0.086717,-0.990542,-0.106338,0.027040,0.245089,0.123885,-12.548196,-37.385632,-5.800973,,,,,,,
1505916298.699059,-0.661095,1.426910,2.047478,-0.337534,0.109456,0.041168,-0.088039,-0.989666,-0.113181,0.005810,0.083233,-0.103478,-12.677068,-37.288704,-6.135026,,,,,,,
1505916298.719032,-0.633292,1.422567,2.017108,-0.294327,-0.255620,-0.079652,-0.087402,-0.989034,-0.119048,-0.010972,0.095968,-0.146363,-12.674801,-37.258324,-6.321475,,,,,,,
1505916298.738998,-0.607906,1.419906,1.983831,-0.231050,-0.382708,-0.157150,-0.085855,-0.988638,-0.123389,-0.030417,0.130514,-0.003748,-12.645686,-37.244476,-6.459855,,,,,,,
1505916298.758964,-0.574894,1.417145,1.945659,-0.310602,-0.162777,-0.160584,-0.083219,-0.988219,-0.128445,-0.060198,0.001067,-0.031085,-12.551349,-37.252449,-6.596429,,,,,,,
1505916298.778930,-0.543538,1.411831,1.907901,-0.436726,-0.470689,-0.075375,-0.081866,-0.987392,-0.135484,-0.078290,-0.099202,-0.123366,-12.490552,-37.245800,-6.747654,,,,,,,
1505916298.798898,-0.522252,1.404530,1.872351,-0.446727,-0.716319,-0.071561,-0.082558,-0.986210,-0.143440,-0.043129,-0.089962,0.028526,-12.510299,-37.202858,-6.945066,,,,,,,
1505916298.818862,-0.500006,1.398967,1.842147,-0.318216,-0.112139,-0.080001,-0.081975,-0.985274,-0.150053,-0.036219,-0.133196,0.066389,-12.536413,-37.155220,-7.149972,,,,,,,
1505916298.838830,-0.476648,1.394658,1.821094,-0.278093,0.217339,-0.040290,-0.080396,-0.984528,-0.155698,-0.016208,-0.067459,0.002728,-12.477453,-37.131176,-7.374491,,,,,,,
1505916298.858797,-0.455395,1.389306,1.803586,-0.305126,0.201192,-0.009491,-0.079385,-0.983576,-0.162101,0.017191,0.008005,-0.010994,-12.449166,-37.113911,-7.507988,,,,,,,
1505916298.878762,-0.409304,1.378139,1.759977,-0.382276,0.022821,0.133532,-0.076199,-0.981499,-0.175652,-0.026676,-0.085670,-0.073188,-12.268318,-37.030174,-8.188332,,,,,,,
1505916298.898727,-0.410812,1.367626,1.759809,-0.531685,-0.104525,0.245394,-0.080580,-0.979432,-0.184987,0.037825,-0.022094,-0.002223,-12.410198,-36.911354,-8.504884,,,,,,,
1505916298.918694,-0.397229,1.352896,1.741650,-0.325405,-0.356198,0.271868,-0.083633,-0.976353,-0.199348,0.049239,-0.007793,0.004218,-12.512758,-36.834122,-8.687499,,,,,,,
1505916298.938656,-0.416609,1.347094,1.754818,-0.144778,-0.290799,0.233716,-0.089771,-0.975083,-0.202867,0.043628,0.052155,0.021394,-12.766367,-36.632095,-9.159891,,,,,,,
1505916298.958626,-0.403240,1.342887,1.738219,-0.133062,-0.226913,0.220221,-0.088660,-0.974141,-0.207820,0.058402,0.064152,-0.008321,-12.927289,-36.570057,-9.182064,,,,,,,
1505916298.978571,-0.420388,1.338500,1.748154,-0.165858,-0.443612,0.166240,-0.093953,-0.973140,-0.210168,0.010015,0.053844,0.013513,-12.890316,-36.542900,-9.340782,,,,,,,
1505916298.998558,-0.427842,1.334511,1.749214,-0.176896,-0.177316,0.054257,-0.097127,-0.972214,-0.212992,0.002370,0.117798,0.063944,-13.104869,-36.459248,-9.369094,,,,,,,
1505916299.018507,-0.425534,1.332141,1.745027,-0.099406,-0.091778,-0.015448,-0.097586,-0.971657,-0.215314,0.021262,0.085792,-0.019290,-13.138921,-36.430878,-9.431552,,,,,,,
1505916299.038476,-0.401182,1.316660,1.716840,-0.035847,-0.208475,-0.041483,-0.098177,-0.967881,-0.231447,-0.022428,0.078217,0.140856,-13.160835,-36.256111,-10.053907,,,,,,,
1505916299.058433,-0.399546,1.315483,1.711707,-0.131796,-0.273564,-0.032811,-0.098241,-0.967584,-0.232657,-0.034525,-0.000967,0.011145,-13.168099,-36.256195,-10.044069,,,,,,,
1505916299.078427,-0.419906,1.315663,1.725804,-0.189334,-0.264469,0.041884,-0.102887,-0.967630,-0.230450,-0.035541,-0.056922,0.040799,-13.175882,-36.251747,-10.049934,,,,,,,
1505916299.098391,-0.426035,1.311384,1.726183,-0.197690,-0.349944,0.128067,-0.106007,-0.966541,-0.233583,0.007100,-0.094174,-0.014402,-13.408322,-36.197346,-9.937958,,,,,,,
1505916299.118356,-0.439200,1.309813,1.731543,-0.178003,-0.393372,0.102219,-0.109719,-0.966137,-0.233542,0.016884,0.041622,0.047095,-13.623019,-36.104095,-9.985077,,,,,,,
1505916299.138309,-0.443526,1.306592,1.727775,-0.164698,-0.407686,-0.013453,-0.112063,-0.965301,-0.235874,0.066637,0.052718,0.021382,-13.630957,-36.127728,-9.888299,,,,,,,
1505916299.158289,-0.444012,1.304637,1.722156,-0.070887,-0.126936,0.011291,-0.112988,-0.964788,-0.237524,0.002316,0.036535,0.119482,-13.750315,-36.079475,-9.899222,,,,,,,
1505916299.178256,-0.450879,1.311243,1.729919,0.082986,0.100824,0.026435,-0.111837,-0.966505,-0.231001,0.031041,0.040693,-0.023897,-13.724710,-36.149971,-9.675029,,,,,,,
1505916299.198195,-0.453209,1.312911,1.729818,0.050122,-0.250684,-0.073340,-0.111668,-0.966932,-0.229289,0.054372,0.050367,-0.061269,-13.724613,-36.152164,-9.666962,,,,,,,
1505916299.218189,-0.447738,1.314467,1.720166,-0.038757,-0.133222,0.006080,-0.109761,-0.967327,-0.228541,-0.001064,0.007717,0.074656,-13.640254,-36.220577,-9.529297,,,,,,,
1505916299.238154,-0.451840,1.311881,1.724555,-0.109147,0.040047,0.208047,-0.111789,-0.966668,-0.230338,0.050510,-0.133109,0.021766,-13.659149,-36.215031,-9.523301,,,,,,,
1505916299.258101,-0.474242,1.306625,1.745787,-0.088973,-0.106515,0.409699,-0.119239,-0.965309,-0.232293,-0.012902,-0.092522,-0.019416,-13.728951,-36.172729,-9.583511,,,,,,,
1505916299.278088,-0.506610,1.301594,1.775582,-0.029508,-0.276781,0.469002,-0.129049,-0.963983,-0.232556,-0.049265,-0.065787,-0.047198,-14.185780,-35.981392,-9.638328,,,,,,,
1505916299.298053,-0.535504,1.296764,1.799148,-0.073700,-0.277333,0.341289,-0.138088,-0.962688,-0.232732,-0.066899,-0.039159,0.009435,-14.378669,-35.911362,-9.613647,,,,,,,
1505916299.318007,-0.576180,1.292549,1.836457,-0.210490,-0.106735,0.402566,-0.149648,-0.961538,-0.230325,0.011784,-0.012507,0.057901,-15.006519,-35.716999,-9.375203,,,,,,,
1505916299.337987,-0.593662,1.283020,1.853645,-0.283175,-0.034938,0.477533,-0.158769,-0.958877,-0.235258,0.005251,0.011932,0.041594,-15.236677,-35.596359,-9.462401,,,,,,,
1505916299.357953,-0.607798,1.271317,1.865895,-0.292832,-0.216965,0.521355,-0.168476,-0.955490,-0.242187,0.011524,-0.009598,-0.038987,-15.771951,-35.290340,-9.727872,,,,,,,
1505916299.377901,-0.631210,1.260109,1.884826,-0.289224,-0.251250,0.579002,-0.180408,-0.952124,-0.246806,-0.051190,-0.025476,-0.013234,-16.070940,-35.109707,-9.890779,,,,,,,
1505916299.397886,-0.655906,1.248985,1.907570,-0.200993,-0.110018,0.653207,-0.192895,-0.948664,-0.250655,-0.043921,-0.139516,-0.044862,-16.524378,-34.865181,-10.007907,,,,,,,
1505916299.417851,-0.684139,1.238097,1.936495,-0.090426,0.051834,0.647350,-0.206410,-0.945164,-0.253100,-0.120097,-0.068218,0.009768,-17.122135,-34.539852,-10.130416,,,,,,,
1505916299.437809,-0.708879,1.230189,1.962879,-0.003398,-0.041050,0.541284,-0.217467,-0.942552,-0.253582,-0.059999,0.040635,-0.041965,-17.460653,-34.360100,-10.163830,,,,,,,
1505916299.457784,-0.726736,1.216970,1.977998,-0.003098,-0.373291,0.427910,-0.230219,-0.938054,-0.258948,-0.057012,0.020528,-0.133386,-17.838657,-34.171364,-10.143677,,,,,,,
1505916299.477751,-0.754753,1.213367,2.000697,0.209778,-0.278322,0.445820,-0.239697,-0.936799,-0.254857,-0.036304,-0.092650,-0.086085,-18.380749,-33.875664,-10.167677,,,,,,,
1505916299.497694,-0.789779,1.206973,2.026782,0.039548,-0.695009,0.582587,-0.252724,-0.934543,-0.250519,0.028801,-0.133267,0.079422,-18.686237,-33.761051,-9.990491,,,,,,,
1505916299.517683,-0.815202,1.203352,2.040903,-0.087818,-0.739347,0.461594,-0.261472,-0.933248,-0.246333,0.093412,-0.031153,0.026164,-19.177601,-33.562874,-9.723550,,,,,,,
1505916299.537650,-0.839850,1.193281,2.053157,-0.190838,-0.589020,0.553988,-0.274447,-0.929584,-0.246075,0.094210,-0.050321,0.086087,-19.628017,-33.377163,-9.460457,,,,,,,
1505916299.557600,-0.860747,1.183373,2.064524,-0.159926,-0.535373,0.463464,-0.286500,-0.925885,-0.246280,0.122163,0.098234,0.022815,-19.976292,-33.190010,-9.389627,,,,,,,
1505916299.577583,-0.877171,1.177007,2.068056,-0.132979,-0.721013,0.160492,-0.295032,-0.923462,-0.245304,0.140736,0.289017,-0.000393,-20.364197,-32.987324,-9.269846,,,,,,,
1505916299.597548,-0.887382,1.176717,2.065854,0.021365,-0.488741,-0.105999,-0.297729,-0.923351,-0.242448,0.083908,0.299434,0.046846,-20.592321,-32.919632,-9.002683,,,,,,,
1505916299.617507,-0.919844,1.177048,2.099088,0.364344,0.440385,0.056984,-0.305198,-0.923478,-0.232472,-0.138039,0.152192,0.106587,-20.865833,-32.851974,-8.611546,,,,,,,
1505916299.637480,-0.918141,1.183733,2.108544,0.265269,0.397060,-0.268375,-0.299891,-0.926021,-0.229237,-0.037649,0.170055,0.054448,-20.833614,-32.883373,-8.569623,,,,,,,
1505916299.657447,-0.908246,1.190291,2.101651,0.035147,0.137411,-0.317368,-0.292813,-0.928477,-0.228453,0.096463,0.018824,0.061476,-20.475334,-33.109146,-8.563831,,,,,,,
1505916299.677413,-0.899456,1.195209,2.094679,0.078615,0.044808,-0.275898,-0.287215,-0.930292,-0.228174,0.044829,-0.034506,-0.002050,-20.263708,-33.231403,-8.593616,,,,,,,
1505916299.697380,-0.897347,1.200274,2.092094,0.117793,-0.027971,-0.156154,-0.283046,-0.932138,-0.225838,0.032680,-0.039953,0.018349,-20.169825,-33.295021,-8.568180,,,,,,,
1505916299.717343,-0.898685,1.201762,2.091967,-0.004068,-0.106372,-0.040620,-0.282263,-0.932676,-0.224596,-0.105570,-0.151568,-0.039931,-20.041794,-33.402481,-8.449549,,,,,,,
1505916299.737288,-0.898310,1.201934,2.088240,-0.050533,-0.171216,-0.062708,-0.282053,-0.932738,-0.224601,-0.090368,-0.092027,-0.010537,-20.036430,-33.413742,-8.417690,,,,,,,
1505916299.757278,-0.910525,1.202594,2.097721,0.093085,-0.031664,-0.060990,-0.284289,-0.932976,-0.220762,-0.058759,-0.039543,0.025464,-20.027014,-33.424248,-8.398367,,,,,,,
1505916299.777219,-0.917880,1.204215,2.104826,0.151353,-0.090610,0.064306,-0.284703,-0.933558,-0.217746,0.025228,0.036570,-0.038052,-20.115086,-33.431095,-8.157169,,,,,,,
1505916299.797194,-0.918092,1.202785,2.103114,0.023075,-0.187112,0.183966,-0.285810,-0.933045,-0.218496,0.030484,0.009018,-0.041804,-20.131397,-33.421963,-8.154344,,,,,,,
1505916299.817152,-0.916964,1.195725,2.098698,-0.166024,-0.189398,0.363807,-0.290785,-0.930482,-0.222819,0.014845,-0.038696,-0.064717,-20.217819,-33.379021,-8.116341,,,,,,,
1505916299.837117,-0.924873,1.182960,2.104002,-0.477949,-0.228251,0.805090,-0.301999,-0.925730,-0.227644,-0.099109,-0.262366,-0.080477,-20.607342,-33.083420,-8.343799,,,,,,,
1505916299.857110,-0.932449,1.162575,2.110299,-0.251963,0.286180,0.706730,-0.318805,-0.917828,-0.236547,0.020374,0.093427,0.218923,-21.244783,-32.604321,-8.626218,,,,,,,
1505916299.877075,-0.939214,1.154488,2.116696,-0.112600,-0.258744,0.211630,-0.326378,-0.914588,-0.238759,-0.006553,0.213523,-0.074809,-21.434408,-32.446800,-8.750176,,,,,,,
1505916299.897042,-0.940786,1.153481,2.114760,-0.033884,-0.094694,-0.049298,-0.327497,-0.914180,-0.238788,0.033598,0.063274,0.043720,-21.659962,-32.299721,-8.738897,,,,,,,
1505916299.917006,-0.941071,1.152960,2.112829,-0.052156,-0.136666,0.051011,-0.327950,-0.913969,-0.238975,0.065575,-0.012163,-0.034691,-21.652361,-32.307148,-8.730267,,,,,,,
1505916299.936975,-0.949552,1.150232,2.114633,-0.046046,-0.458170,0.144425,-0.331991,-0.912859,-0.237636,0.038549,-0.043593,-0.094487,-21.732742,-32.266277,-8.681558,,,,,,,
1505916299.956940,-0.967564,1.146187,2.123855,-0.010469,-0.345161,0.091787,-0.339255,-0.911200,-0.233710,-0.083840,-0.037180,0.016654,-21.931244,-32.187759,-8.471286,,,,,,,
1505916299.976882,-0.973122,1.145299,2.125179,-0.002871,-0.153529,0.039439,-0.341218,-0.910833,-0.232277,-0.073210,-0.014429,0.064796,-22.117414,-32.101799,-8.311951,,,,,,,
1505916299.996875,-0.973936,1.143870,2.124655,-0.078384,0.015244,0.064638,-0.342483,-0.910243,-0.232730,-0.070008,0.006343,0.047550,-22.168720,-32.080116,-8.258812,,,,,,,
1505916300.016840,-0.972235,1.142940,2.125629,-0.125650,0.204091,0.128678,-0.342786,-0.909857,-0.233789,0.029111,0.033408,0.038477,-22.219303,-32.015781,-8.371758,,,,,,,
1505916300.036788,-0.966707,1.139257,2.123983,-0.125523,0.204136,0.119040,-0.344244,-0.908323,-0.237582,-0.029429,0.020658,0.027652,-22.240227,-31.974916,-8.471789,,,,,,,
1505916300.056772,-0.959441,1.138254,2.120962,-0.048092,0.220171,-0.092452,-0.343255,-0.907903,-0.240600,0.021019,0.079351,0.011001,-22.252388,-31.932938,-8.597265,,,,,,,
1505916300.076740,-0.944321,1.141525,2.108657,0.009733,0.070004,-0.237601,-0.337170,-0.909269,-0.244020,0.048367,0.029936,-0.035277,-22.040928,-32.018539,-8.820696,,,,,,,
1505916300.096695,-0.940028,1.144546,2.106161,0.134469,0.245067,-0.107283,-0.333899,-0.910523,-0.243844,-0.039605,-0.043030,-0.024253,-21.938353,-32.085793,-8.832025,,,,,,,
1505916300.116673,-0.938028,1.150001,2.115002,0.326412,0.539159,-0.164336,-0.329401,-0.912764,-0.241570,-0.128256,0.039000,-0.062339,-21.853107,-32.140110,-8.845860,,,,,,,
1505916300.136636,-0.932374,1.157425,2.117446,0.257759,0.416573,-0.351835,-0.322579,-0.915772,-0.239384,-0.045585,0.143006,0.076802,-21.553778,-32.337296,-8.861614,,,,,,,
1505916300.156594,-0.919965,1.167599,2.115618,0.283361,0.603252,-0.473718,-0.312155,-0.919811,-0.237711,-0.008524,0.111065,0.046183,-21.305475,-32.495487,-8.883358,,,,,,,
1505916300.176572,-0.901863,1.179956,2.113157,0.417023,0.920783,-0.566321,-0.298861,-0.924589,-0.236255,0.003420,0.067091,0.055606,-20.995499,-32.681644,-8.938304,,,,,,,
1505916300.196530,-0.880755,1.197488,2.113779,0.640102,1.203680,-0.716430,-0.281262,-0.931126,-0.232155,-0.015521,0.082066,0.098092,-20.154335,-33.169735,-9.075551,,,,,,,
1505916300.216475,-0.865093,1.217553,2.117239,0.704400,0.772193,-0.722931,-0.263316,-0.938256,-0.224367,0.036250,-0.046577,0.021777,-19.639149,-33.476311,-9.079353,,,,,,,
1505916300.236470,-0.853010,1.236746,2.118819,0.606121,0.664458,-0.689898,-0.246974,-0.944722,-0.215648,0.004664,-0.035991,0.041316,-19.017857,-33.879356,-8.905301,,,,,,,
1505916300.256434,-0.834455,1.254640,2.112432,0.446936,0.559458,-0.812502,-0.230367,-0.950438,-0.208805,0.020375,-0.053972,-0.015728,-18.270304,-34.336151,-8.718878,,,,,,,
1505916300.276381,-0.807087,1.272243,2.085889,0.245483,-0.278009,-0.965480,-0.212449,-0.955763,-0.203428,0.110703,-0.116213,-0.276202,-17.770596,-34.618587,-8.634437,,,,,,,
1505916300.296370,-0.794177,1.288001,2.050162,0.161761,-1.505775,-0.817022,-0.199036,-0.960279,-0.195572,0.160096,-0.171175,-0.381241,-17.175991,-34.994213,-8.317724,,,,,,,
1505916300.316334,-0.807687,1.295842,2.032001,0.049305,-1.358754,-0.251335,-0.196212,-0.962438,-0.187655,0.006256,-0.141795,0.062335,-16.896442,-35.301567,-7.556694,,,,,,,
1505916300.336301,-0.819364,1.297373,2.028594,0.015577,-0.419069,-0.005972,-0.197313,-0.962852,-0.184345,-0.090528,-0.064934,0.192035,-16.936472,-35.355896,-7.204911,,,,,,,
1505916300.356267,-0.830619,1.296272,2.034648,0.028428,-0.294202,0.124445,-0.200158,-0.962554,-0.182828,-0.038031,-0.025117,0.045529,-16.969397,-35.353626,-7.138252,,,,,,,
1505916300.376234,-0.841976,1.296193,2.039239,0.066849,-0.308260,-0.034985,-0.202279,-0.962533,-0.180593,0.078438,0.026925,0.007223,-17.132423,-35.313053,-6.947107,,,,,,,
1505916300.396199,-0.845816,1.299434,2.036714,0.078898,-0.525540,-0.172236,-0.200634,-0.963407,-0.177746,-0.050388,-0.148196,-0.065067,-17.090763,-35.361412,-6.802259,,,,,,,
1505916300.416167,-0.855169,1.303909,2.030157,0.065887,-0.836714,-0.249159,-0.199032,-0.964597,-0.173031,-0.077793,-0.203433,0.030239,-17.064129,-35.398834,-6.673221,,,,,,,
1505916300.436131,-0.853722,1.306703,2.016243,-0.112266,-0.408922,-0.184457,-0.196749,-0.965330,-0.171547,-0.009824,0.064100,0.160545,-16.957268,-35.525093,-6.262016,,,,,,,
1505916300.456099,-0.843505,1.305584,2.003515,-0.173698,-0.002788,0.014684,-0.195794,-0.965037,-0.174266,0.014519,0.040247,0.042430,-16.905788,-35.548298,-6.269527,,,,,,,
1505916300.476044,-0.845071,1.301632,2.002177,-0.112378,-0.289535,0.201812,-0.198918,-0.963993,-0.176490,0.020069,0.060566,-0.043863,-16.914854,-35.528755,-6.355258,,,,,,,
1505916300.496032,-0.865929,1.296735,2.013213,0.016634,-0.430171,0.320614,-0.206149,-0.962680,-0.175359,0.036700,0.201724,0.120549,-17.210886,-35.399601,-6.280756,,,,,,,
1505916300.515997,-0.898180,1.292255,2.044374,0.275744,0.184994,0.519718,-0.215067,-0.961457,-0.171306,0.028132,0.026231,0.213298,-17.521948,-35.278004,-6.102293,,,,,,,
1505916300.535950,-0.937636,1.287612,2.091097,0.436899,0.266906,0.579008,-0.225253,-0.960171,-0.165328,0.026980,-0.126179,0.109786,-17.698963,-35.200581,-6.038202,,,,,,,
1505916300.555907,-0.975854,1.283790,2.137164,0.342728,0.322338,0.507024,-0.234443,-0.959096,-0.158657,-0.013466,-0.193141,-0.018666,-18.238094,-34.972954,-5.749663,,,,,,,
1505916300.575892,-0.995632,1.277576,2.168107,0.160386,0.599403,0.518315,-0.242531,-0.957318,-0.157228,-0.025245,0.121503,0.114106,-18.538740,-34.816734,-5.736230,,,,,,,
1505916300.595860,-1.016180,1.272091,2.202319,0.378700,0.591565,0.470308,-0.250171,-0.955718,-0.154975,0.011646,0.087371,0.106879,-18.683487,-34.730190,-5.790946,,,,,,,
1505916300.615811,-1.023719,1.269304,2.227256,0.096504,0.826090,0.215144,-0.253606,-0.954894,-0.154469,0.016103,-0.129945,-0.092937,-18.994379,-34.545799,-5.881792,,,,,,,
1505916300.635788,-1.019582,1.265741,2.236396,0.013307,0.589660,0.265698,-0.255862,-0.953830,-0.157298,-0.025144,-0.048092,0.218791,-19.055515,-34.470943,-6.118451,,,,,,,
1505916300.655755,-1.020233,1.263638,2.260802,0.439152,1.778229,0.234714,-0.257673,-0.953197,-0.158180,-0.003482,0.093196,0.553948,-19.142254,-34.395252,-6.271738,,,,,,,
1505916300.675725,-1.009068,1.266452,2.295708,0.200341,0.960902,0.078422,-0.253619,-0.954044,-0.159618,0.177020,0.084873,-2.482259,-18.966274,-34.380665,-6.858893,,,,,,,
1505916300.695693,-1.058687,1.267911,2.291934,0.223138,-3.057326,-0.030278,-0.260011,-0.954480,-0.146160,-0.112670,-0.201526,0.438824,-19.137527,-34.403976,-6.238221,,,,,,,
1505916300.715658,-1.128074,1.269786,2.325960,0.585846,-1.109209,0.269587,-0.267901,-0.955037,-0.127015,-0.119199,-0.183421,0.549378,-19.378956,-34.425190,-5.306278,,,,,,,
1505916300.735610,-1.188063,1.268336,2.377895,0.743859,-0.311099,0.408145,-0.276318,-0.954607,-0.111242,-0.127765,-0.140334,0.215627,-19.755024,-34.346611,-4.340890,,,,,,,
1505916300.755593,-1.245726,1.267413,2.435832,0.801391,-0.028598,0.270966,-0.283104,-0.954331,-0.095414,-0.099647,0.095612,-0.058700,-20.028923,-34.259583,-3.730604,,,,,,,
1505916300.775544,-1.289173,1.270961,2.483576,0.666248,0.146256,-0.118622,-0.283727,-0.955385,-0.082086,-0.029841,0.165010,-0.072791,-20.108713,-34.241268,-3.459693,,,,,,,
1505916300.795499,-1.316012,1.281477,2.512678,0.488241,-0.066746,-0.569708,-0.276090,-0.958438,-0.071906,0.112485,0.175952,-0.112771,-19.920206,-34.405682,-2.868585,,,,,,,
1505916300.815491,-1.334591,1.300445,2.526709,0.377788,-0.299712,-1.041929,-0.259655,-0.963677,-0.062498,0.095882,0.430947,0.021467,-19.408709,-34.726513,-2.483076,,,,,,,
1505916300.835450,-1.343871,1.325204,2.533480,0.374241,0.022331,-1.248848,-0.236898,-0.969993,-0.054700,0.086095,0.384361,0.008329,-19.038881,-34.943165,-2.300112,,,,,,,
1505916300.855408,-1.346541,1.352950,2.542802,0.431143,0.467441,-1.374341,-0.210715,-0.976365,-0.048062,0.154975,-0.221373,-0.089602,-17.699127,-35.662182,-1.934897,,,,,,,
1505916300.875391,-1.349375,1.383475,2.552785,0.446368,0.295922,-1.519865,-0.181682,-0.982507,-0.040899,0.021129,-0.089454,0.042013,-16.657469,-36.169441,-1.759071,,,,,,,
1505916300.895344,-1.351142,1.415105,2.563927,0.413230,0.545557,-1.489642,-0.151337,-0.987905,-0.033787,-0.073455,-0.107326,0.058720,-16.657469,-36.169441,-1.759071,,,,,,,
1505916300.915311,-1.360264,1.441796,2.582297,0.418387,0.402434,-1.120988,-0.125802,-0.991691,-0.026884,0.003991,-0.254738,-0.068011,-14.985680,-36.905251,-1.492027,,,,,,,
1505916300.935272,-1.402277,1.456821,2.630056,0.409064,0.138343,-0.355821,-0.112117,-0.993512,-0.019075,0.112300,-0.309268,-0.132781,-13.957672,-37.315235,-1.245332,,,,,,,
1505916300.955231,-1.468986,1.455181,2.696464,0.321978,-0.106324,0.314754,-0.114761,-0.993324,-0.011724,0.108551,-0.196114,-0.100824,-13.756296,-37.396084,-1.044750,,,,,,,
1505916300.975217,-1.496058,1.447267,2.723576,-0.000133,0.067908,0.429543,-0.122871,-0.992380,-0.009200,-0.045876,0.050058,0.063186,-13.948040,-37.331497,-0.778264,,,,,,,
1505916300.995162,-1.489945,1.435694,2.719267,-0.244115,0.092008,0.398257,-0.134252,-0.990888,-0.010878,-0.024470,0.091123,0.026991,-14.341243,-37.181919,-0.792367,,,,,,,
1505916301.015137,-1.457597,1.428361,2.687371,-0.235961,0.011764,0.283228,-0.141046,-0.989873,-0.016035,-0.035498,0.140218,-0.086016,-14.681526,-37.047127,-0.870160,,,,,,,
1505916301.035123,-1.434700,1.424370,2.664461,-0.167838,0.016862,0.132659,-0.144554,-0.989299,-0.019796,-0.086082,0.138118,-0.065104,-14.969572,-36.924763,-1.126078,,,,,,,
1505916301.055088,-1.411789,1.422088,2.641679,-0.209751,0.026628,0.072493,-0.146292,-0.988963,-0.023460,-0.089105,0.058040,0.021430,-15.045420,-36.889660,-1.257948,,,,,,,
1505916301.075054,-1.400032,1.415718,2.630147,-0.284283,0.041422,0.058235,-0.152211,-0.987999,-0.026248,-0.049556,-0.025734,0.026660,-15.085283,-36.868462,-1.394543,,,,,,,
1505916301.094997,-1.363291,1.413762,2.593959,-0.290553,0.054227,0.045423,-0.153035,-0.987695,-0.032219,-0.006252,-0.067419,-0.008308,-15.301347,-36.771805,-1.580298,,,,,,,
1505916301.114986,-1.331982,1.411662,2.562944,-0.237106,0.014993,0.046577,-0.153966,-0.987365,-0.037485,0.014989,-0.055558,-0.020621,-15.326543,-36.753803,-1.746239,,,,,,,
1505916301.134949,-1.309586,1.409991,2.540081,-0.180239,-0.022028,0.030629,-0.154682,-0.987099,-0.041349,0.026630,-0.011391,-0.041125,-15.351139,-36.736897,-1.880760,,,,,,,
1505916301.154903,-1.269975,1.409625,2.500280,-0.198614,0.006594,0.041392,-0.153268,-0.987040,-0.047549,0.023950,-0.000020,0.019595,-15.310043,-36.737549,-2.179273,,,,,,,
1505916301.174885,-1.245050,1.407287,2.475380,-0.238321,0.027717,0.054134,-0.154222,-0.986662,-0.052093,0.027040,-0.001039,0.029525,-15.343311,-36.713593,-2.342856,,,,,,,
1505916301.194825,-1.219762,1.404498,2.450837,-0.231174,0.073381,0.068375,-0.155438,-0.986204,-0.056922,0.028256,-0.001497,0.034354,-15.363594,-36.699089,-2.435341,,,,,,,
1505916301.214792,-1.197341,1.405390,2.430239,-0.205688,0.120216,0.067723,-0.153304,-0.986352,-0.060071,0.045409,0.012414,-0.001712,-15.282972,-36.723347,-2.573078,,,,,,,
1505916301.234766,-1.176407,1.403027,2.411625,-0.178693,0.129964,0.041169,-0.154164,-0.985960,-0.064162,0.049763,0.020170,0.005126,-15.335459,-36.684326,-2.806787,,,,,,,
1505916301.254751,-1.151665,1.405110,2.389537,-0.185078,0.150179,0.035879,-0.150653,-0.986305,-0.067121,0.048602,0.012261,0.016065,-15.352772,-36.666969,-2.935965,,,,,,,
1505916301.274717,-1.129957,1.402719,2.370729,-0.193814,0.160732,0.048742,-0.151294,-0.985908,-0.071381,0.032031,-0.015679,0.021744,-15.220592,-36.710373,-3.078329,,,,,,,
1505916301.294683,-1.110132,1.401813,2.353945,-0.192793,0.168167,0.050928,-0.150649,-0.985756,-0.074764,0.017104,-0.008964,0.013271,-15.251587,-36.676712,-3.316922,,,,,,,
1505916301.314651,-1.088688,1.400799,2.335669,-0.202202,0.175666,0.034846,-0.149896,-0.985585,-0.078440,0.018396,0.002721,0.012720,-15.218115,-36.680614,-3.425742,,,,,,,
1505916301.334589,-1.059308,1.399884,2.309380,-0.241401,0.159722,0.017372,-0.148314,-0.985430,-0.083251,0.017562,0.020434,0.006545,-15.153687,-36.690727,-3.598675,,,,,,,
1505916301.354583,-1.028171,1.397777,2.280920,-0.242423,0.149094,0.016226,-0.147428,-0.985069,-0.088900,0.025282,-0.000786,-0.018263,-15.085749,-36.689301,-3.887110,,,,,,,
1505916301.374531,-1.009208,1.395634,2.264848,-0.126202,0.162074,0.019141,-0.147502,-0.984698,-0.092803,0.031246,-0.018125,-0.022370,-15.086016,-36.671288,-4.052519,,,,,,,
1505916301.394498,-0.988325,1.396919,2.247769,-0.002392,0.199594,0.007242,-0.144475,-0.984921,-0.095167,0.043462,-0.051166,-0.019457,-14.973476,-36.690727,-4.287134,,,,,,,
1505916301.414474,-0.989478,1.397502,2.253269,0.087254,0.217877,0.001463,-0.144105,-0.985022,-0.094685,0.080186,-0.021142,-0.008282,-14.957850,-36.692642,-4.325136,,,,,,,
1505916301.434446,-0.996608,1.398634,2.264913,0.124486,0.221105,0.009201,-0.143840,-0.985217,-0.093049,0.083385,-0.007780,-0.009597,-14.949626,-36.696270,-4.322811,,,,,,,
1505916301.454389,-0.987696,1.403091,2.261372,0.118049,0.270041,0.000870,-0.139338,-0.985970,-0.091909,0.065043,0.013665,0.002599,-14.781971,-36.763798,-4.325578,,,,,,,
1505916301.474378,-0.986229,1.407354,2.266458,0.115810,0.339178,-0.006237,-0.135697,-0.986673,-0.089793,0.052369,-0.001562,0.012858,-14.746408,-36.778637,-4.320823,,,,,,,
1505916301.494324,-0.991124,1.408828,2.278809,0.131715,0.376424,-0.006988,-0.134918,-0.986912,-0.088331,0.045120,-0.009319,0.013746,-14.616819,-36.832443,-4.302771,,,,,,,
1505916301.514309,-0.999346,1.411715,2.294976,0.177289,0.397693,0.011614,-0.133243,-0.987373,-0.085677,0.017261,-0.014031,0.008117,-14.580086,-36.845604,-4.314719,,,,,,,
1505916301.534279,-1.015184,1.413631,2.318717,0.229537,0.364795,0.021367,-0.132975,-0.987675,-0.082558,-0.011418,-0.015789,-0.004264,-14.504045,-36.881912,-4.260435,,,,,,,
1505916301.554230,-1.037727,1.415625,2.348508,0.261517,0.326535,0.032037,-0.133106,-0.987985,-0.078539,-0.037060,-0.009497,-0.010542,-14.498567,-36.887970,-4.226509,,,,,,,
1505916301.574184,-1.067704,1.415719,2.384807,0.271461,0.277719,0.016820,-0.135318,-0.988000,-0.074469,-0.089550,-0.005607,-0.019708,-14.579153,-36.864937,-4.149553,,,,,,,
1505916301.594161,-1.092855,1.418236,2.414938,0.256077,0.203409,-0.013708,-0.134940,-0.988385,-0.069898,-0.120141,0.013135,-0.028322,-14.558461,-36.892879,-3.969971,,,,,,,
1505916301.614136,-1.117696,1.421104,2.442812,0.252595,0.087676,-0.047626,-0.134085,-0.988817,-0.065284,-0.137521,0.021395,-0.038384,-14.558461,-36.892879,-3.969971,,,,,,,
1505916301.634044,-1.144540,1.424399,2.469927,0.250253,-0.056765,-0.080641,-0.132822,-0.989303,-0.060314,-0.200765,0.057296,-0.043217,-14.505467,-36.936932,-3.748132,,,,,,,
1505916301.654030,-1.173535,1.427646,2.499958,0.274599,0.173784,-0.036266,-0.131552,-0.989771,-0.055195,-0.175913,0.109858,-0.077251,-14.430456,-36.994480,-3.458972,,,,,,,
1505916301.673996,-1.205097,1.430523,2.538144,0.349825,0.276983,-0.019129,-0.130568,-0.990178,-0.049998,-0.057466,0.064686,-0.164205,-14.430456,-36.994480,-3.458972,,,,,,,
1505916301.693950,-1.266910,1.432254,2.602868,0.472993,-0.067807,0.102690,-0.131772,-0.990418,-0.041323,0.003247,-0.082274,0.045840,-14.397072,-37.041340,-3.075298,,,,,,,
1505916301.713929,-1.308652,1.432333,2.637723,0.096186,-0.498905,0.049644,-0.133306,-0.990429,-0.035768,0.072866,-0.041721,0.004763,-14.468607,-37.038265,-2.760512,,,,,,,
1505916301.733888,-1.326591,1.430978,2.644293,0.024353,-0.578996,0.093712,-0.135228,-0.990241,-0.033696,0.063680,-0.008507,-0.016994,-14.502623,-37.032452,-2.658080,,,,,,,
1505916301.753851,-1.354908,1.429480,2.661926,0.166983,-0.492622,0.100441,-0.137577,-0.990031,-0.030171,-0.056393,0.031612,-0.060176,-14.648155,-36.995842,-2.352245,,,,,,,
1505916301.773828,-1.400743,1.429284,2.702268,0.333166,-0.165644,0.047715,-0.139006,-0.990004,-0.023869,-0.001299,0.017256,-0.074123,-14.721968,-36.983562,-2.067365,,,,,,,
1505916301.793771,-1.456836,1.429645,2.756907,0.408165,-0.106846,0.011034,-0.139770,-0.990055,-0.015998,-0.010910,0.028766,-0.093789,-14.742960,-36.983128,-1.920308,,,,,,,
1505916301.813733,-1.514263,1.430775,2.813769,0.382955,-0.017356,-0.038912,-0.139341,-0.990213,-0.007886,-0.059755,-0.010992,0.037930,-14.755442,-37.000015,-1.438729,,,,,,,
1505916301.833727,-1.556066,1.432266,2.856632,0.251024,0.027209,-0.076916,-0.138073,-0.990420,-0.002034,-0.019688,0.060809,-0.004344,-14.714639,-37.024818,-1.198528,,,,,,,
1505916301.853684,-1.582565,1.434229,2.883621,0.146854,0.021816,-0.105417,-0.136134,-0.990689,0.001602,-0.019216,0.082486,-0.007935,-14.683752,-37.039734,-1.113434,,,,,,,
1505916301.873638,-1.593504,1.436368,2.895817,0.047418,0.070496,-0.100363,-0.133989,-0.990978,0.003043,-0.026564,0.038097,-0.000434,-14.564922,-37.090359,-0.981011,,,,,,,
1505916301.893626,-1.588314,1.436656,2.892033,0.023706,0.036307,-0.075000,-0.133718,-0.991017,0.002343,-0.005335,0.001545,-0.021477,-14.510577,-37.111675,-0.980205,,,,,,,
1505916301.913576,-1.593554,1.437135,2.896423,0.022697,-0.065161,0.023982,-0.133229,-0.991081,0.003032,0.017018,-0.052056,0.012638,-14.522918,-37.105988,-1.012253,,,,,,,
1505916301.933559,-1.605485,1.435169,2.908142,-0.072993,0.031912,0.139659,-0.135131,-0.990817,0.004689,-0.002290,-0.018354,0.024669,-14.530876,-37.103718,-0.980784,,,,,,,
1505916301.953525,-1.591759,1.432793,2.895580,-0.066137,0.077852,0.094996,-0.137535,-0.990493,0.002884,-0.047630,-0.000337,-0.027328,-14.659838,-37.052982,-0.979787,,,,,,,
1505916301.973492,-1.577216,1.429913,2.882250,0.011913,0.040137,0.009569,-0.140414,-0.990092,0.000901,-0.055997,-0.017751,0.001494,-14.776947,-37.003639,-1.080158,,,,,,,
1505916301.993450,-1.577653,1.430454,2.883472,-0.003358,0.031852,-0.044121,-0.139879,-0.990168,0.000959,-0.045592,0.001475,0.035220,-14.781160,-37.001827,-1.084565,,,,,,,
1505916302.013425,-1.585377,1.430154,2.891197,-0.062448,-0.004223,-0.085379,-0.140164,-0.990126,0.002044,-0.014072,0.018431,0.038102,-14.788782,-37.000134,-1.037351,,,,,,,
1505916302.033391,-1.573661,1.432072,2.878830,-0.099534,-0.037199,-0.097581,-0.138279,-0.990393,0.000396,-0.012981,0.027152,0.036271,-14.755714,-37.012665,-1.061082,,,,,,,
1505916302.053356,-1.574411,1.432943,2.878800,-0.118484,0.000096,-0.124236,-0.137416,-0.990513,0.000497,-0.013768,0.015644,0.038200,-14.694737,-37.036598,-1.072008,,,,,,,
1505916302.073301,-1.553325,1.435056,2.858018,-0.154171,0.032846,-0.095336,-0.135303,-0.990801,-0.002364,0.005130,0.007586,0.037520,-14.609982,-37.066998,-1.174772,,,,,,,
1505916302.093291,-1.545986,1.436735,2.851710,-0.169351,0.113607,-0.093868,-0.133619,-0.991027,-0.003316,-0.000414,0.019286,0.049687,-14.609982,-37.066998,-1.174772,,,,,,,
1505916302.113256,-1.519001,1.439525,2.827577,-0.149169,0.150182,-0.175992,-0.130719,-0.991396,-0.006777,0.004757,0.000750,-0.015913,-14.506698,-37.103645,-1.292113,,,,,,,
1505916302.133222,-1.491113,1.444213,2.801258,-0.180076,0.071755,-0.241982,-0.125845,-0.991999,-0.010049,0.002707,-0.002004,0.024728,-16.032944,-36.759022,1.400545,,,,,,,
1505916302.153190,-1.455128,1.449853,2.766637,-0.176597,0.075434,-0.344752,-0.119843,-0.992695,-0.013924,-0.005218,0.002873,0.016121,-16.032944,-36.759022,1.400545,,,,,,,
1505916302.173154,-1.413415,1.458211,2.724445,-0.097964,-0.092294,-0.364579,-0.110959,-0.993669,-0.017609,0.029706,-0.091460,0.002746,-15.701134,-36.910118,1.166293,,,,,,,
1505916302.193104,-1.391505,1.464229,2.699339,-0.082569,-0.153144,-0.304880,-0.104661,-0.994327,-0.018968,0.024506,-0.027493,0.020021,-15.314376,-37.075592,1.054988,,,,,,,
1505916302.213088,-1.370592,1.469903,2.675602,-0.066948,-0.124514,-0.282125,-0.098710,-0.994915,-0.020030,0.001771,-0.006276,0.004879,-15.142501,-37.146439,1.043875,,,,,,,
1505916302.233053,-1.354232,1.474995,2.656887,-0.019431,-0.106501,-0.248532,-0.093421,-0.995415,-0.020554,0.004279,-0.035164,0.011109,-14.815556,-37.278133,1.040707,,,,,,,
1505916302.253019,-1.358426,1.479356,2.659318,0.007789,-0.061251,-0.137790,-0.089261,-0.995822,-0.019247,0.008878,-0.001675,0.028997,-14.635578,-37.347221,1.108017,,,,,,,
1505916302.272987,-1.355703,1.480551,2.656100,-0.014207,-0.004439,-0.019772,-0.088046,-0.995931,-0.019236,0.012286,0.018514,0.025248,-14.589811,-37.364807,1.118538,,,,,,,
1505916302.292952,-1.341507,1.481319,2.642075,-0.079446,0.011338,-0.011504,-0.087019,-0.996000,-0.020310,0.021086,0.035199,0.001374,-14.560900,-37.376862,1.092325,,,,,,,
1505916302.312920,-1.319034,1.481291,2.619558,-0.102611,-0.001371,-0.032068,-0.086568,-0.995997,-0.022267,-0.015331,0.007884,0.007908,-14.514070,-37.397060,1.021954,,,,,,,
1505916302.332886,-1.297012,1.481651,2.597204,-0.082150,-0.022547,-0.041712,-0.085712,-0.996029,-0.024071,-0.023434,-0.010853,0.006035,-14.500651,-37.403267,0.984640,,,,,,,
1505916302.352851,-1.285663,1.480918,2.584971,-0.064344,-0.043916,-0.011742,-0.086134,-0.995964,-0.025248,-0.021105,-0.015038,0.008753,-14.492189,-37.408390,0.911921,,,,,,,
1505916302.372818,-1.272344,1.480508,2.570887,-0.068941,-0.028079,0.009746,-0.086180,-0.995927,-0.026513,-0.017335,0.005906,0.004540,-14.488529,-37.410702,0.874382,,,,,,,
1505916302.392785,-1.258577,1.479705,2.556840,-0.075612,0.000547,0.023801,-0.086568,-0.995854,-0.027942,-0.018672,0.008931,0.002201,-14.492959,-37.409512,0.851821,,,,,,,
1505916302.412750,-1.249036,1.477688,2.547734,-0.070821,0.035484,0.057245,-0.088202,-0.995669,-0.029402,-0.004571,-0.021757,0.001829,-14.555808,-37.386913,0.767997,,,,,,,
1505916302.432707,-1.238765,1.475630,2.538179,-0.084142,0.034208,0.096784,-0.089833,-0.995475,-0.030974,-0.000239,-0.011132,-0.000413,-14.594484,-37.372791,0.719911,,,,,,,
1505916302.452684,-1.221776,1.472589,2.521239,-0.157126,-0.008665,0.138928,-0.092138,-0.995182,-0.033531,0.003881,0.005130,0.001121,-14.648758,-37.352581,0.664421,,,,,,,
1505916302.472643,-1.190974,1.469317,2.489480,-0.234134,-0.075937,0.168040,-0.094085,-0.994855,-0.037559,-0.002076,0.028806,-0.018639,-14.756383,-37.312981,0.483199,,,,,,,
1505916302.492613,-1.164940,1.463944,2.460908,-0.225895,-0.151590,0.207259,-0.097985,-0.994297,-0.042105,-0.031410,0.011646,-0.061609,-14.854143,-37.275482,0.368215,,,,,,,
1505916302.512583,-1.139557,1.456014,2.431701,-0.149248,-0.216031,0.152723,-0.104045,-0.993420,-0.047873,-0.043782,0.024929,-0.054650,-14.967294,-37.230984,0.276894,,,,,,,
1505916302.532540,-1.126204,1.452307,2.413669,-0.207209,-0.205248,0.095680,-0.106720,-0.992988,-0.050842,-0.082473,0.079078,-0.022721,-15.222678,-37.128220,0.089861,,,,,,,
1505916302.552488,-1.097537,1.445024,2.381222,-0.353367,-0.170417,0.086466,-0.111653,-0.992101,-0.057175,-0.060969,0.050802,-0.012070,-15.240330,-37.121025,0.067067,,,,,,,
1505916302.572479,-1.050788,1.439449,2.330227,-0.447149,-0.204625,0.085699,-0.113658,-0.991386,-0.065077,-0.055272,0.039650,-0.006975,-15.434481,-37.040310,-0.186862,,,,,,,
1505916302.592449,-1.006764,1.433741,2.281340,-0.404148,-0.233158,0.067578,-0.115464,-0.990623,-0.073040,-0.059615,-0.029519,-0.032276,-15.529799,-36.996483,-0.572896,,,,,,,
1505916302.612394,-0.975804,1.426889,2.244642,-0.348309,-0.289323,0.052590,-0.118766,-0.989663,-0.080382,-0.064248,-0.054938,-0.015855,-15.565906,-36.978554,-0.729284,,,,,,,
1505916302.632380,-0.947119,1.422114,2.209642,-0.346109,-0.292488,0.048300,-0.120247,-0.988967,-0.086515,-0.069069,-0.051118,0.003034,-15.676235,-36.927551,-0.924283,,,,,,,
1505916302.652347,-0.920055,1.417362,2.176584,-0.338554,-0.274349,0.037745,-0.121599,-0.988252,-0.092583,-0.068922,-0.008513,0.017998,-15.726368,-36.900558,-1.128243,,,,,,,
1505916302.672300,-0.908911,1.411531,2.159555,-0.324317,-0.249715,0.004794,-0.125103,-0.987344,-0.097472,-0.037998,0.008966,0.024977,-15.850047,-36.843739,-1.248120,,,,,,,
1505916302.692280,-0.883440,1.407368,2.129434,-0.320327,-0.190206,0.012674,-0.125756,-0.986675,-0.103233,-0.034141,0.012356,0.027092,-15.855936,-36.838394,-1.328413,,,,,,,
1505916302.712245,-0.858739,1.402916,2.101292,-0.318587,-0.129679,0.029114,-0.126492,-0.985941,-0.109177,-0.011188,-0.015020,0.017014,-15.880463,-36.817249,-1.594902,,,,,,,
1505916302.732197,-0.842190,1.398677,2.082415,-0.290311,-0.074471,0.057462,-0.127786,-0.985224,-0.114038,-0.005072,-0.030050,0.013391,-15.918924,-36.793381,-1.754297,,,,,,,
1505916302.752180,-0.825892,1.393827,2.064941,-0.268531,-0.026758,0.094293,-0.129422,-0.984382,-0.119343,0.003735,-0.031625,0.016697,-15.941872,-36.778812,-1.848845,,,,,,,
1505916302.772144,-0.812352,1.389007,2.051367,-0.240890,0.033927,0.088398,-0.131237,-0.983522,-0.124346,-0.025151,-0.003096,0.028643,-16.041334,-36.720222,-2.131562,,,,,,,
1505916302.792112,-0.814453,1.385140,2.054640,-0.188784,0.108463,0.085955,-0.134263,-0.982815,-0.126679,-0.043243,0.002667,0.070084,-16.158304,-36.662762,-2.234648,,,,,,,
1505916302.812078,-0.805859,1.382094,2.048976,-0.113987,0.177832,0.062188,-0.135328,-0.982248,-0.129901,-0.042177,0.002100,0.073306,-16.199100,-36.636936,-2.359400,,,,,,,
1505916302.832043,-0.799805,1.380817,2.047243,-0.024020,0.249443,0.020319,-0.135439,-0.982008,-0.131591,-0.016051,-0.002275,0.079940,-16.226292,-36.618065,-2.463241,,,,,,,
1505916302.851987,-0.809395,1.383243,2.062373,0.054309,0.308285,-0.024908,-0.134969,-0.982463,-0.128642,0.000875,-0.008458,0.045528,-16.243492,-36.610626,-2.460479,,,,,,,
1505916302.871977,-0.803672,1.384808,2.063415,0.051377,0.355203,-0.055701,-0.133124,-0.982754,-0.128346,0.003409,-0.015751,0.025059,-16.218306,-36.618610,-2.507353,,,,,,,
1505916302.891942,-0.788868,1.386770,2.056573,-0.032581,0.419690,-0.014056,-0.129841,-0.983115,-0.128943,0.032399,-0.054864,0.003897,-16.139416,-36.643841,-2.644058,,,,,,,
1505916302.911894,-0.777383,1.385272,2.053371,-0.089003,0.409662,0.059444,-0.129384,-0.982840,-0.131475,0.015188,-0.078073,-0.043131,-16.066257,-36.663700,-2.809136,,,,,,,
1505916302.931875,-0.765811,1.381466,2.049629,-0.060804,0.373321,0.112943,-0.130447,-0.982130,-0.135660,-0.009431,-0.041307,-0.048087,-16.091595,-36.641258,-2.953244,,,,,,,
1505916302.951832,-0.763772,1.379794,2.055407,0.000354,0.399110,0.081335,-0.131305,-0.981815,-0.137111,-0.040921,0.021442,-0.042684,-16.141167,-36.603741,-3.141914,,,,,,,
1505916302.971800,-0.760938,1.379552,2.061031,0.034033,0.432386,0.028189,-0.131080,-0.981769,-0.137654,-0.032632,0.029117,-0.021648,-16.182003,-36.571587,-3.302200,,,,,,,
1505916302.991775,-0.753506,1.378751,2.062709,0.004386,0.464337,0.003575,-0.130591,-0.981616,-0.139198,0.013617,0.024249,-0.011970,-16.176765,-36.565922,-3.389430,,,,,,,
1505916303.011741,-0.743762,1.378633,2.062093,-0.007238,0.450518,-0.001933,-0.129307,-0.981593,-0.140550,0.033558,0.016948,-0.038604,-16.153128,-36.552773,-3.635098,,,,,,,
1505916303.031707,-0.719042,1.377918,2.046581,0.002551,0.449548,-0.016881,-0.126256,-0.981457,-0.144231,0.042622,0.024593,-0.058818,-16.057055,-36.569717,-3.881918,,,,,,,
1505916303.051674,-0.708111,1.378446,2.044882,0.013417,0.473054,-0.037023,-0.124335,-0.981558,-0.145209,0.040701,0.024694,-0.057840,-16.032234,-36.572990,-3.953029,,,,,,,
1505916303.071639,-0.684305,1.378173,2.030596,-0.004578,0.454983,-0.044741,-0.121012,-0.981505,-0.148334,0.033259,0.048369,-0.048321,-15.969408,-36.584862,-4.094959,,,,,,,
1505916303.091607,-0.671821,1.378066,2.026178,-0.050598,0.376082,-0.016576,-0.119217,-0.981485,-0.149916,-0.006455,0.044565,-0.044740,-15.829614,-36.610271,-4.399352,,,,,,,
1505916303.111573,-0.658400,1.374581,2.019508,-0.103238,0.329024,0.020316,-0.119286,-0.980812,-0.154207,-0.016685,0.037345,-0.033904,-15.829614,-36.610271,-4.399352,,,,,,,
1505916303.131538,-0.644492,1.372394,2.012327,-0.143512,0.357774,-0.006526,-0.118418,-0.980383,-0.157565,-0.028188,0.012365,-0.020169,-15.824453,-36.572067,-4.723701,,,,,,,
1505916303.151505,-0.622912,1.369190,1.997591,-0.150945,0.336869,-0.085943,-0.116823,-0.979746,-0.162635,-0.021162,-0.016851,-0.041024,-15.774895,-36.543442,-5.096292,,,,,,,
1505916303.171472,-0.600859,1.368607,1.980576,-0.104053,0.228769,-0.138793,-0.113531,-0.979629,-0.165642,-0.027293,-0.021485,-0.050484,-15.723562,-36.550949,-5.200062,,,,,,,
1505916303.191436,-0.583653,1.366526,1.966144,-0.071660,0.116161,-0.143551,-0.111787,-0.979209,-0.169272,-0.041808,-0.013589,-0.039804,-15.600824,-36.580894,-5.356782,,,,,,,
1505916303.211404,-0.568784,1.366819,1.952297,-0.062232,0.046940,-0.114996,-0.109104,-0.979269,-0.170673,-0.055569,-0.001490,0.031376,-15.493137,-36.598351,-5.546732,,,,,,,
1505916303.231369,-0.572129,1.366546,1.956015,-0.075386,0.040394,-0.086184,-0.109819,-0.979213,-0.170532,-0.059874,0.001720,0.035568,-15.493137,-36.598351,-5.546732,,,,,,,
1505916303.251318,-0.560603,1.365883,1.944595,-0.102120,-0.000124,-0.072666,-0.108191,-0.979079,-0.172336,-0.027063,0.033400,0.024692,-15.450487,-36.606350,-5.612510,,,,,,,
1505916303.271303,-0.556283,1.364632,1.938833,-0.119204,-0.092758,-0.050832,-0.108092,-0.978823,-0.173842,-0.013368,0.042224,0.021651,-15.407269,-36.613457,-5.684517,,,,,,,
1505916303.291245,-0.549802,1.362721,1.929648,-0.137658,-0.137608,-0.016942,-0.107940,-0.978430,-0.176133,0.020981,0.022727,0.024293,-15.427443,-36.604630,-5.686644,,,,,,,
1505916303.311229,-0.545051,1.360151,1.922066,-0.156114,-0.130309,0.005482,-0.108405,-0.977896,-0.178794,0.020973,-0.027658,0.019782,-15.434950,-36.586792,-5.780281,,,,,,,
1505916303.331201,-0.539555,1.358960,1.914043,-0.128542,-0.115416,0.015369,-0.108020,-0.977646,-0.180386,0.020434,-0.038329,0.016049,-15.450159,-36.571896,-5.833671,,,,,,,
1505916303.351151,-0.538481,1.357199,1.910929,-0.067821,-0.085526,0.015912,-0.108709,-0.977275,-0.181980,0.021993,-0.034368,0.007618,-15.429618,-36.578892,-5.844172,,,,,,,
1505916303.371121,-0.539187,1.356630,1.910227,-0.007988,-0.063026,0.004625,-0.109123,-0.977154,-0.182380,0.018699,-0.007725,-0.014031,-15.458595,-36.562298,-5.871372,,,,,,,
1505916303.391102,-0.534796,1.356397,1.905032,-0.011128,-0.037465,-0.005953,-0.108437,-0.977104,-0.183053,0.017128,-0.003029,-0.014212,-15.464735,-36.561279,-5.861539,,,,,,,
1505916303.411061,-0.533836,1.356078,1.903588,-0.028335,-0.010941,-0.001612,-0.108419,-0.977036,-0.183426,0.016119,-0.000152,-0.013840,-15.434391,-36.570206,-5.885771,,,,,,,
1505916303.431011,-0.532487,1.355656,1.902255,-0.017713,0.009285,-0.002498,-0.108381,-0.976946,-0.183927,0.010557,-0.003751,-0.000643,-15.433216,-36.566875,-5.909505,,,,,,,
1505916303.451000,-0.529663,1.355697,1.899889,0.003712,0.031709,-0.014017,-0.107841,-0.976955,-0.184198,0.004631,-0.006916,-0.003745,-15.428797,-36.567020,-5.920121,,,,,,,
1505916303.470963,-0.527964,1.356325,1.898974,0.033789,0.043549,-0.031972,-0.107219,-0.977089,-0.183850,-0.003667,-0.004692,-0.002353,-15.408653,-36.573902,-5.930078,,,,,,,
1505916303.490917,-0.528583,1.356919,1.900222,0.032870,0.031892,-0.040611,-0.107040,-0.977215,-0.183283,-0.016388,-0.000446,0.003474,-15.366222,-36.594227,-5.914760,,,,,,,
1505916303.510899,-0.529610,1.357449,1.901771,0.010519,0.038250,-0.046057,-0.106966,-0.977328,-0.182726,-0.020338,0.000536,0.005739,-15.366999,-36.595097,-5.907372,,,,,,,
1505916303.530838,-0.528700,1.357599,1.901594,0.008527,0.052132,-0.059902,-0.106726,-0.977359,-0.182697,-0.020852,0.003650,-0.011486,-15.371838,-36.594704,-5.897209,,,,,,,
1505916303.550823,-0.523821,1.356919,1.897690,0.008808,0.059685,-0.083409,-0.106166,-0.977215,-0.183790,0.000651,0.001538,-0.007814,-15.354933,-36.596157,-5.932131,,,,,,,
1505916303.570798,-0.515841,1.357993,1.890818,-0.003032,0.061753,-0.075971,-0.104178,-0.977443,-0.183719,0.003379,0.000544,0.003940,-15.318737,-36.606281,-5.963162,,,,,,,
1505916303.590744,-0.508101,1.358779,1.884323,-0.017164,0.074402,-0.058846,-0.102379,-0.977609,-0.183848,0.015679,0.009621,0.001933,-15.240533,-36.637550,-5.971483,,,,,,,
1505916303.610726,-0.482343,1.356071,1.860467,-0.035086,0.093615,-0.081335,-0.098838,-0.977035,-0.188769,0.031547,0.022186,-0.045454,-15.143013,-36.654247,-6.115402,,,,,,,
1505916303.630697,-0.465385,1.355981,1.846668,-0.103737,0.228889,-0.164466,-0.095662,-0.977016,-0.190496,0.077352,0.024257,-0.053644,-15.004559,-36.685200,-6.269156,,,,,,,
1505916303.650650,-0.435529,1.354780,1.822366,-0.197168,0.336356,-0.223280,-0.090428,-0.976759,-0.194331,0.086094,0.021971,-0.064580,-14.924967,-36.703915,-6.349079,,,,,,,
1505916303.670609,-0.387929,1.351133,1.781152,-0.191547,0.312688,-0.160216,-0.082426,-0.975971,-0.201710,0.085371,0.012684,-0.072964,-14.519928,-36.781319,-6.822679,,,,,,,
1505916303.690596,-0.368712,1.348778,1.767900,-0.143926,0.321843,-0.051707,-0.079363,-0.975455,-0.205400,0.079973,0.005377,-0.044264,-14.414646,-36.791325,-6.989928,,,,,,,
1505916303.710556,-0.361357,1.346680,1.766932,-0.072902,0.302285,0.068548,-0.078574,-0.974991,-0.207892,0.041815,-0.036484,0.061255,-14.344434,-36.781597,-7.182911,,,,,,,
1505916303.730529,-0.363421,1.344767,1.773083,-0.079303,0.123473,0.108129,-0.079665,-0.974564,-0.209472,-0.065019,-0.072967,0.111130,-14.370911,-36.740425,-7.338980,,,,,,,
1505916303.750473,-0.366741,1.341545,1.776999,-0.164984,-0.031821,0.086331,-0.081486,-0.973837,-0.212136,-0.116818,-0.073221,0.120385,-14.420731,-36.706093,-7.412700,,,,,,,
1505916303.770444,-0.366240,1.337397,1.773707,-0.228550,-0.182537,0.004720,-0.082825,-0.972886,-0.215947,-0.178726,-0.063186,0.090581,-14.484906,-36.658077,-7.524326,,,,,,,
1505916303.790427,-0.357734,1.333943,1.761525,-0.190640,-0.148885,-0.126580,-0.082162,-0.972081,-0.219790,-0.109779,-0.034450,0.127505,-14.494585,-36.625351,-7.663771,,,,,,,
1505916303.810370,-0.339915,1.332883,1.739811,-0.107587,-0.184202,-0.267665,-0.078576,-0.971832,-0.222191,-0.047874,-0.036988,0.136604,-14.419282,-36.642529,-7.723491,,,,,,,
1505916303.830362,-0.317942,1.333497,1.712576,-0.059580,-0.251840,-0.333115,-0.073488,-0.971976,-0.223296,0.066225,-0.035378,0.167144,-14.246326,-36.706089,-7.742606,,,,,,,
1505916303.850326,-0.292967,1.334465,1.681757,-0.065589,-0.227234,-0.368345,-0.067617,-0.972203,-0.224161,0.112906,-0.011378,0.143000,-13.977746,-36.815731,-7.711505,,,,,,,
1505916303.870280,-0.267870,1.334878,1.651739,-0.085506,-0.196664,-0.321157,-0.061865,-0.972300,-0.225400,0.119604,-0.006139,0.130719,-13.918774,-36.838856,-7.707741,,,,,,,
1505916303.890260,-0.247511,1.334276,1.627261,-0.110243,-0.160979,-0.233270,-0.057407,-0.972159,-0.227181,0.089282,0.009040,0.121742,-13.602822,-36.954334,-7.719025,,,,,,,
1505916303.910225,-0.234213,1.333036,1.610596,-0.098744,-0.131621,-0.140920,-0.054660,-0.971868,-0.229096,0.052402,0.002141,0.142014,-13.438478,-37.004257,-7.767569,,,,,,,
1505916303.930193,-0.227031,1.332192,1.600908,-0.045239,-0.103102,-0.078312,-0.053198,-0.971669,-0.230282,0.037436,0.005482,0.150875,-13.383454,-37.019295,-7.790868,,,,,,,
1505916303.950159,-0.224122,1.332283,1.596210,0.012925,-0.073369,-0.045656,-0.052509,-0.971690,-0.230349,0.020587,0.001323,0.173922,-13.343843,-37.033211,-7.792680,,,,,,,
1505916303.970102,-0.223936,1.333181,1.594331,0.052171,-0.091464,-0.024111,-0.052272,-0.971902,-0.229509,0.028041,0.008035,0.181382,-13.322032,-37.050903,-7.745757,,,,,,,
1505916303.990092,-0.227116,1.334433,1.595219,0.068928,-0.133050,0.008939,-0.052727,-0.972196,-0.228156,0.024056,0.012479,0.179419,-13.324438,-37.060783,-7.694186,,,,,,,
1505916304.010058,-0.234375,1.335575,1.599273,0.063245,-0.186399,0.047138,-0.054124,-0.972463,-0.226686,-0.024291,0.031453,0.178056,-13.356523,-37.067314,-7.606589,,,,,,,
1505916304.030023,-0.245362,1.336202,1.606200,0.039409,-0.224891,0.083177,-0.056464,-0.972609,-0.225486,-0.050882,0.033766,0.185569,-13.446466,-37.059105,-7.487191,,,,,,,
1505916304.049990,-0.257319,1.335737,1.613913,-0.025849,-0.212314,0.093572,-0.059271,-0.972501,-0.225233,-0.044626,0.031964,0.191221,-13.521086,-37.043865,-7.427994,,,,,,,
1505916304.069958,-0.266069,1.334010,1.619402,-0.089850,-0.145389,0.077528,-0.061681,-0.972097,-0.226326,0.035664,0.046483,0.162269,-13.596236,-37.022148,-7.399041,,,,,,,
1505916304.089923,-0.272073,1.331658,1.623117,-0.103803,-0.108197,0.075527,-0.063653,-0.971542,-0.228153,0.066186,0.037399,0.146274,-13.713892,-36.970829,-7.438397,,,,,,,
1505916304.109889,-0.274207,1.337985,1.623277,-0.088736,-0.117716,0.071257,-0.062474,-0.973022,-0.222095,0.060231,-0.019853,0.147556,-13.787701,-36.934593,-7.481839,,,,,,,
1505916304.129837,-0.278316,1.336057,1.624875,-0.091363,-0.134545,0.031514,-0.063901,-0.972575,-0.223639,0.039548,-0.090901,0.183005,-13.699670,-37.022293,-7.204972,,,,,,,
1505916304.149797,-0.287252,1.343930,1.630923,-0.127183,-0.124902,-0.000778,-0.063725,-0.974376,-0.215709,0.017308,-0.097768,0.193752,-13.758869,-36.990334,-7.256127,,,,,,,
1505916304.169789,-0.281566,1.340631,1.623539,-0.216251,-0.039742,-0.061842,-0.063391,-0.973629,-0.219155,0.008337,-0.077259,0.181832,-13.725576,-37.063957,-6.936435,,,,,,,
1505916304.189755,-0.263671,1.336192,1.605594,-0.303365,0.060638,-0.193487,-0.060585,-0.972606,-0.224425,0.075981,-0.024540,0.079375,-13.671995,-37.053551,-7.096029,,,,,,,
1505916304.209721,-0.214044,1.334577,1.557512,-0.298005,0.089086,-0.362525,-0.049711,-0.972230,-0.228688,0.093580,-0.160369,0.047445,-13.263336,-37.153511,-7.344615,,,,,,,
1505916304.229688,-0.176542,1.332238,1.520070,-0.141403,0.068413,-0.420617,-0.041501,-0.971680,-0.232630,0.047040,-0.273361,0.136865,-12.960790,-37.221386,-7.538490,,,,,,,
1505916304.249655,-0.139499,1.332645,1.486556,0.022445,0.342784,-0.365506,-0.032802,-0.971776,-0.233615,0.049633,-0.299098,0.151767,-12.798177,-37.266003,-7.595689,,,,,,,
1505916304.269603,-0.108280,1.337057,1.463984,0.288354,0.501224,-0.256934,-0.025030,-0.972807,-0.230261,0.131567,-0.366487,0.132925,-12.332277,-37.410389,-7.656395,,,,,,,
1505916304.289579,-0.083255,1.344704,1.449201,0.359177,0.585894,-0.144619,-0.018642,-0.974550,-0.223395,0.165019,-0.266997,0.143912,-12.137996,-37.493526,-7.559582,,,,,,,
1505916304.309554,-0.072171,1.350169,1.451244,0.229855,0.646140,0.101295,-0.015780,-0.975760,-0.218272,0.333331,-0.141717,-0.014470,-11.959176,-37.572403,-7.452213,,,,,,,
1505916304.329519,-0.083444,1.352976,1.472162,0.113371,0.332559,0.265779,-0.018011,-0.976371,-0.215350,0.125174,0.010337,-0.210905,-11.991725,-37.565968,-7.432322,,,,,,,
1505916304.349485,-0.109510,1.354062,1.503540,0.086709,0.223572,0.369918,-0.023502,-0.976605,-0.213754,-0.069500,0.078427,-0.097968,-12.182981,-37.505997,-7.424138,,,,,,,
1505916304.369453,-0.140879,1.354576,1.543669,0.068738,0.530412,0.450912,-0.030124,-0.976715,-0.212414,-0.176037,0.104614,-0.052295,-12.373199,-37.443169,-7.426697,,,,,,,
1505916304.389417,-0.166102,1.354319,1.584294,0.050418,0.788929,0.407381,-0.035513,-0.976660,-0.211835,-0.308237,0.106009,-0.043430,-12.671921,-37.316299,-7.560349,,,,,,,
1505916304.409369,-0.183249,1.354384,1.616922,0.068034,0.666083,0.312500,-0.039129,-0.976674,-0.211132,-0.312144,-0.001536,-0.085544,-12.794918,-37.250309,-7.677706,,,,,,,
1505916304.429351,-0.201561,1.353800,1.645719,-0.007259,0.382996,0.340330,-0.043102,-0.976549,-0.210939,-0.267292,-0.078383,-0.080535,-12.893947,-37.197266,-7.768667,,,,,,,
1505916304.449317,-0.231685,1.350559,1.681443,-0.102058,0.165368,0.457329,-0.050163,-0.975846,-0.212624,-0.154565,-0.240997,-0.077171,-13.206106,-37.052582,-7.933969,,,,,,,
1505916304.469266,-0.270575,1.346929,1.723782,-0.020468,0.106796,0.513154,-0.059338,-0.975046,-0.213925,-0.113208,-0.143545,-0.072574,-13.453163,-36.946480,-8.013288,,,,,,,
1505916304.489251,-0.309218,1.344043,1.765683,-0.009110,0.131543,0.455539,-0.068414,-0.974401,-0.214153,-0.048392,0.092657,-0.047337,-13.811369,-36.804966,-8.055002,,,,,,,
1505916304.509216,-0.333303,1.340567,1.795145,-0.100901,0.278596,0.344496,-0.074660,-0.973614,-0.215642,0.077696,0.250729,-0.010920,-14.157995,-36.653233,-8.144596,,,,,,,
1505916304.529173,-0.354082,1.334554,1.822303,-0.221705,0.255535,0.448589,-0.081152,-0.972224,-0.219531,0.141897,0.370403,0.051135,-14.318518,-36.560574,-8.279321,,,,,,,
1505916304.549150,-0.383450,1.325391,1.856654,-0.298227,0.177034,0.605091,-0.090893,-0.970039,-0.225306,0.079876,0.357154,0.124247,-14.619283,-36.385284,-8.522343,,,,,,,
1505916304.569115,-0.417855,1.314947,1.895902,-0.267904,0.184325,0.650298,-0.102695,-0.967449,-0.231293,-0.052838,0.218837,0.146775,-14.924891,-36.213253,-8.723003,,,,,,,
1505916304.589079,-0.444065,1.307048,1.927043,-0.144497,0.209002,0.429493,-0.112001,-0.965420,-0.235416,-0.107345,0.056576,0.162967,-15.533724,-35.868946,-9.075508,,,,,,,
1505916304.609049,-0.457539,1.303847,1.945329,0.032315,0.184851,0.215139,-0.116527,-0.964580,-0.236657,-0.097477,0.016902,0.164819,-15.700895,-35.768631,-9.183110,,,,,,,
1505916304.629014,-0.479875,1.306819,1.968998,0.184839,-0.017382,0.103458,-0.120459,-0.965360,-0.231452,-0.145288,0.031629,0.167319,-15.893328,-35.715305,-9.058793,,,,,,,
1505916304.648954,-0.494825,1.309865,1.983105,0.233278,-0.075668,0.084119,-0.122509,-0.966150,-0.227036,-0.168354,0.109354,0.136841,-15.970619,-35.722355,-8.893570,,,,,,,
1505916304.668949,-0.508427,1.313149,1.996505,0.209691,0.005129,0.074826,-0.124041,-0.966992,-0.222576,-0.140242,0.118970,0.121807,-16.019503,-35.735214,-8.752872,,,,,,,
1505916304.688913,-0.517771,1.314610,2.007677,0.079963,0.099363,0.101393,-0.125415,-0.967363,-0.220179,-0.024685,0.066118,0.082545,-16.082199,-35.742226,-8.608070,,,,,,,
1505916304.708872,-0.522958,1.314086,2.015254,0.011813,0.093952,0.092385,-0.126809,-0.967230,-0.219965,0.040475,-0.055963,0.049769,-16.122272,-35.724617,-8.606218,,,,,,,
1505916304.728847,-0.529792,1.314864,2.022667,0.140770,-0.033171,0.050622,-0.127929,-0.967428,-0.218444,0.002227,-0.122141,0.056639,-16.159058,-35.705063,-8.618347,,,,,,,
1505916304.748813,-0.547557,1.317190,2.040259,0.228510,-0.019830,0.190453,-0.130618,-0.968014,-0.214215,0.002947,-0.221744,0.194562,-16.252419,-35.704357,-8.443963,,,,,,,
1505916304.768780,-0.571930,1.326896,2.067003,0.062295,0.183478,0.293462,-0.130707,-0.970404,-0.203058,0.073990,-0.096338,0.136224,-16.287197,-35.698498,-8.401627,,,,,,,
1505916304.788746,-0.583958,1.323011,2.087536,-0.027372,0.493670,0.308719,-0.135218,-0.969458,-0.204615,0.144953,-0.101831,-0.031347,-16.377022,-35.734909,-8.065495,,,,,,,
1505916304.808696,-0.594746,1.322965,2.106717,0.237555,0.245357,0.096753,-0.137442,-0.969447,-0.203181,-0.134134,-0.293798,-0.116429,-16.520769,-35.634624,-8.214651,,,,,,,
1505916304.828672,-0.605946,1.330831,2.118147,0.507174,-0.085428,-0.209927,-0.135362,-0.971346,-0.195355,-0.309508,-0.322919,-0.165546,-16.527931,-35.636368,-8.192632,,,,,,,
1505916304.848618,-0.620566,1.344849,2.132723,0.733846,0.050365,-0.276295,-0.130272,-0.974582,-0.182259,-0.170310,-0.327267,-0.182883,-16.365202,-35.827080,-7.670916,,,,,,,
1505916304.868609,-0.634821,1.357966,2.150063,0.529768,0.168667,-0.199692,-0.125265,-0.977437,-0.170076,0.029867,-0.050883,-0.279250,-16.119623,-36.059471,-7.079197,,,,,,,
1505916304.888578,-0.637010,1.363156,2.156430,0.084532,0.266933,-0.035761,-0.122618,-0.978520,-0.165720,0.152464,0.214833,-0.242879,-16.014626,-36.142101,-6.893684,,,,,,,
1505916304.908532,-0.627521,1.360229,2.154188,-0.235736,0.387850,0.112989,-0.122721,-0.977912,-0.169195,0.177744,0.309837,-0.110636,-15.965805,-36.151257,-6.958629,,,,,,,
1505916304.928509,-0.617498,1.353232,2.151500,-0.307209,0.350080,0.201225,-0.124978,-0.976426,-0.175991,0.123696,0.207810,0.001110,-16.028358,-36.046631,-7.346741,,,,,,,
1505916304.948477,-0.611798,1.348589,2.151675,-0.087492,0.233124,0.071175,-0.126575,-0.975413,-0.180409,0.034107,-0.118260,-0.044551,-16.089520,-35.972157,-7.574574,,,,,,,
1505916304.968443,-0.601477,1.350819,2.141662,0.073416,-0.103845,-0.324013,-0.123475,-0.975902,-0.179912,0.017731,-0.278355,-0.121358,-16.079931,-35.953972,-7.680521,,,,,,,
1505916304.988408,-0.563445,1.358652,2.100254,0.078263,-0.061665,-0.700712,-0.112459,-0.977582,-0.178009,0.032701,-0.177875,-0.127594,-15.709367,-36.140934,-7.569119,,,,,,,
1505916305.008376,-0.510607,1.366347,2.048762,0.039568,0.226878,-0.581396,-0.099221,-0.979173,-0.177131,0.078500,-0.034423,-0.125252,-15.328154,-36.311764,-7.533017,,,,,,,
1505916305.028342,-0.471161,1.369961,2.013944,-0.032697,0.241277,-0.282940,-0.090552,-0.979900,-0.177752,0.038809,0.142300,-0.048764,-14.899329,-36.479568,-7.582473,,,,,,,
1505916305.048308,-0.447193,1.371331,1.992053,-0.026434,0.028385,-0.225283,-0.085685,-0.980173,-0.178660,-0.062829,0.288782,0.042231,-14.713280,-36.540287,-7.653069,,,,,,,
1505916305.068274,-0.422501,1.374099,1.964002,0.014827,-0.234457,-0.382983,-0.080135,-0.980717,-0.178247,-0.069477,0.333394,0.089898,-14.489003,-36.624012,-7.680692,,,,,,,
1505916305.088240,-0.377240,1.377011,1.912477,-0.115920,-0.257202,-0.576677,-0.070936,-0.981282,-0.179034,0.022154,0.273519,0.074527,-14.221795,-36.742142,-7.615661,,,,,,,
1505916305.108205,-0.322683,1.376609,1.853023,-0.261421,-0.166490,-0.485967,-0.061193,-0.981205,-0.183009,0.157445,0.154179,0.014766,-13.755725,-36.905075,-7.683634,,,,,,,
1505916305.128173,-0.280868,1.373865,1.806804,-0.243193,-0.187403,-0.326409,-0.054235,-0.980672,-0.187994,0.195547,0.043400,-0.016825,-13.527334,-36.965282,-7.798838,,,,,,,
1505916305.148114,-0.252805,1.370943,1.774259,-0.065110,-0.207675,-0.234435,-0.049655,-0.980096,-0.192215,0.144275,-0.041984,0.020203,-13.315368,-37.004181,-7.977108,,,,,,,
1505916305.168081,-0.237032,1.373289,1.754219,0.136073,-0.169121,-0.207297,-0.046078,-0.980559,-0.190739,0.089901,-0.021944,0.066090,-13.142378,-37.078159,-7.920272,,,,,,,
1505916305.188046,-0.204488,1.383000,1.719207,0.208902,-0.121370,-0.156275,-0.037911,-0.982418,-0.182805,0.071404,0.030544,0.061513,-13.051873,-37.135731,-7.799286,,,,,,,
1505916305.208023,-0.198328,1.387229,1.710339,0.163435,-0.137659,-0.103096,-0.035965,-0.983199,-0.178960,0.042542,0.109008,0.086980,-12.780431,-37.288219,-7.516111,,,,,,,
1505916305.227977,-0.197115,1.389124,1.705715,0.033512,-0.185044,-0.030262,-0.035383,-0.983543,-0.177176,0.018767,0.134101,0.117972,-12.708887,-37.355530,-7.300091,,,,,,,
1505916305.247972,-0.200310,1.388560,1.705099,-0.055535,-0.184335,0.006694,-0.036060,-0.983441,-0.177605,-0.002530,0.120267,0.090020,-12.721753,-37.358734,-7.261170,,,,,,,
1505916305.267939,-0.200785,1.387149,1.702325,-0.073383,-0.139568,-0.025272,-0.036421,-0.983184,-0.178948,0.032331,0.059066,0.029702,-12.749593,-37.349457,-7.260069,,,,,,,
1505916305.287904,-0.181948,1.388543,1.681064,0.011649,-0.142325,-0.080491,-0.032796,-0.983438,-0.178254,0.039647,-0.027091,0.012025,-12.735159,-37.352764,-7.268392,,,,,,,
1505916305.307869,-0.178433,1.390437,1.672726,0.116802,-0.285579,-0.093577,-0.031838,-0.983779,-0.176535,0.036340,-0.108765,0.040458,-12.597305,-37.417568,-7.174694,,,,,,,
1505916305.327838,-0.178854,1.393668,1.666895,0.158190,-0.311118,-0.070993,-0.031347,-0.984354,-0.173393,0.027593,-0.147620,0.108177,-12.570937,-37.457718,-7.009541,,,,,,,
1505916305.347803,-0.179989,1.396560,1.662017,0.111204,-0.292070,-0.072230,-0.031034,-0.984859,-0.170555,0.034284,-0.142613,0.150750,-12.558453,-37.505009,-6.775128,,,,,,,
1505916305.367770,-0.175241,1.398024,1.650314,0.017481,-0.385476,-0.145109,-0.029972,-0.985112,-0.169281,0.029896,-0.114207,0.166534,-12.530128,-37.539043,-6.637702,,,,,,,
1505916305.387737,-0.155591,1.408740,1.621251,-0.035507,-0.480880,-0.227412,-0.025003,-0.986898,-0.159399,0.042871,-0.036891,0.179007,-12.474282,-37.571575,-6.558341,,,,,,,
1505916305.407702,-0.140694,1.407014,1.596520,-0.177343,-0.497488,-0.148038,-0.022865,-0.986618,-0.161440,0.120307,0.006454,0.040681,-12.257857,-37.720089,-6.097751,,,,,,,
1505916305.427670,-0.137540,1.402961,1.582731,-0.200061,-0.466097,-0.050526,-0.022903,-0.985949,-0.165471,0.025436,-0.162474,-0.054423,-12.240467,-37.721001,-6.126966,,,,,,,
1505916305.447636,-0.136819,1.401355,1.577999,-0.009606,-0.048019,-0.022234,-0.023000,-0.985679,-0.167056,0.173589,-0.336815,-0.186719,-12.251273,-37.713753,-6.149938,,,,,,,
1505916305.467600,-0.131210,1.405186,1.573449,0.322015,0.068969,-0.113791,-0.021568,-0.986318,-0.163437,0.171013,-0.364878,-0.281403,-12.217062,-37.735756,-6.082678,,,,,,,
1505916305.487569,-0.110020,1.415661,1.551996,0.556126,-0.025421,-0.288600,-0.016965,-0.987991,-0.153580,0.104612,-0.209077,-0.278686,-12.071043,-37.833954,-5.755403,,,,,,,
1505916305.507523,-0.075887,1.425242,1.517652,0.347009,0.015664,-0.298170,-0.010996,-0.989426,-0.144623,0.046961,-0.075409,-0.303039,-11.959417,-37.900688,-5.545522,,,,,,,
1505916305.527498,-0.030815,1.427794,1.471252,-0.027653,-0.059273,-0.350127,-0.004391,-0.989793,-0.142448,-0.144413,0.299195,-0.198220,-11.599214,-38.059612,-5.212158,,,,,,,
1505916305.547467,0.007004,1.423962,1.433783,-0.279823,0.107480,-0.197480,0.001025,-0.989239,-0.146304,-0.141238,0.239346,-0.148862,-11.415759,-38.107861,-5.264436,,,,,,,
1505916305.567429,0.021847,1.416748,1.421467,-0.380930,0.124697,-0.058754,0.003352,-0.988158,-0.153403,-0.141124,0.026778,-0.134973,-11.271092,-38.115444,-5.515248,,,,,,,
1505916305.587383,0.014036,1.411418,1.430564,-0.155292,0.026282,0.166906,0.002228,-0.987326,-0.158689,-0.198929,-0.430215,-0.171648,-11.249542,-38.070187,-5.861008,,,,,,,
1505916305.607366,-0.028818,1.412010,1.475924,0.113486,0.177464,0.463942,-0.004556,-0.987420,-0.158054,-0.172187,-0.415092,-0.166943,-11.459312,-38.001408,-5.900846,,,,,,,
1505916305.627305,-0.088817,1.412879,1.541660,0.009360,0.249399,0.495882,-0.013949,-0.987557,-0.156642,-0.075101,-0.019142,-0.143284,-11.725547,-37.924168,-5.874690,,,,,,,
1505916305.647298,-0.132300,1.404027,1.589036,-0.159158,0.116131,0.275601,-0.021898,-0.986126,-0.164547,0.028779,0.164761,-0.065845,-12.109054,-37.787563,-5.976073,,,,,,,
1505916305.667246,-0.148442,1.400310,1.606893,-0.146398,0.059432,0.129683,-0.025092,-0.985502,-0.167796,0.055198,0.223997,-0.020742,-12.280846,-37.678326,-6.306135,,,,,,,
1505916305.687225,-0.158478,1.397487,1.618544,-0.123039,0.096688,0.130048,-0.027214,-0.985020,-0.170282,0.093254,0.310245,0.016077,-12.351053,-37.639549,-6.399893,,,,,,,
1505916305.707195,-0.176963,1.392933,1.640211,-0.253744,0.184870,0.312934,-0.031147,-0.984224,-0.174164,0.025180,0.302461,-0.004547,-13.077606,-37.089252,-10.098918,,,,,,,
1505916305.727165,-0.218381,1.384090,1.687854,-0.395633,0.315038,0.606317,-0.040215,-0.982621,-0.181215,-0.035468,0.272996,-0.011138,-13.263618,-36.965946,-10.306308,,,,,,,
1505916305.747116,-0.263619,1.373267,1.740643,-0.389228,0.318245,0.605304,-0.051137,-0.980554,-0.189468,-0.175547,0.188806,-0.014085,-13.544425,-36.784668,-10.585911,,,,,,,
1505916305.767070,-0.297957,1.364574,1.781017,-0.243855,0.216160,0.445983,-0.060112,-0.978811,-0.195742,-0.235664,0.029928,0.014010,-14.076187,-36.428322,-11.111394,,,,,,,
1505916305.787064,-0.322581,1.359951,1.809994,-0.062583,0.172549,0.302222,-0.066347,-0.977854,-0.198492,-0.208021,-0.004232,0.019155,-14.266049,-36.308170,-11.261497,,,,,,,
1505916305.807022,-0.351551,1.355573,1.842109,0.090724,0.128806,0.174383,-0.073542,-0.976929,-0.200504,-0.136388,-0.021225,0.033069,-14.566940,-36.136158,-11.428345,,,,,,,
1505916305.826976,-0.365226,1.357181,1.858156,0.148202,0.090940,0.112382,-0.075716,-0.977271,-0.198012,-0.066511,0.043433,0.095244,-14.675970,-36.109665,-11.372453,,,,,,,
1505916305.846963,-0.374733,1.359326,1.868967,0.133390,0.018964,0.037962,-0.076828,-0.977723,-0.195332,-0.056473,0.071138,0.107533,-14.714289,-36.113480,-11.310667,,,,,,,
1505916305.866915,-0.378325,1.361343,1.871930,0.087572,-0.063741,-0.029211,-0.076800,-0.978145,-0.193221,-0.059644,0.100841,0.133102,-14.732300,-36.133888,-11.221680,,,,,,,
1505916305.886873,-0.379261,1.362798,1.870967,0.052519,-0.091428,-0.034942,-0.076454,-0.978446,-0.191827,-0.049507,0.122062,0.109903,-14.725651,-36.167381,-11.122082,,,,,,,
1505916305.906862,-0.379784,1.363991,1.870090,0.055385,-0.045777,-0.019656,-0.076122,-0.978692,-0.190703,-0.027318,0.089013,0.074019,-14.721590,-36.183193,-11.075935,,,,,,,
1505916305.926804,-0.386900,1.364566,1.877514,0.052462,0.031247,0.103953,-0.077264,-0.978810,-0.189635,-0.026267,0.057118,0.045607,-14.728804,-36.195606,-11.025654,,,,,,,
1505916305.946788,-0.396474,1.364683,1.888568,0.045075,0.088733,0.084978,-0.079032,-0.978834,-0.188782,-0.006875,-0.015185,-0.001831,-14.809186,-36.172112,-10.995039,,,,,,,
1505916305.966761,-0.399641,1.365307,1.895021,0.067768,0.189987,0.040743,-0.079392,-0.978961,-0.187968,-0.019348,-0.106030,0.016108,-14.825542,-36.165092,-10.996092,,,,,,,
1505916305.986723,-0.404888,1.367070,1.904948,0.158947,0.248501,0.071628,-0.079697,-0.979319,-0.185962,-0.042205,-0.155126,0.068073,-14.815235,-36.169010,-10.997103,,,,,,,
1505916306.006694,-0.411342,1.369870,1.917466,0.168555,0.312379,0.057077,-0.079799,-0.979882,-0.182930,-0.039433,-0.209373,0.184669,-14.799671,-36.191441,-10.944135,,,,,,,
1505916306.026653,-0.418186,1.370662,1.931217,0.037905,0.356262,0.164729,-0.080734,-0.980040,-0.181670,-0.018555,-0.182329,0.202178,-14.785798,-36.199055,-10.937708,,,,,,,
1505916306.046622,-0.435048,1.367543,1.957470,-0.076374,0.488948,0.386537,-0.085073,-0.979415,-0.183054,-0.012659,-0.068757,0.229334,-14.843828,-36.146839,-11.031386,,,,,,,
1505916306.066593,-0.478224,1.364361,2.011793,-0.198893,0.672185,0.254137,-0.094329,-0.978768,-0.181977,-0.064424,0.018532,-0.023422,-15.208948,-35.968765,-11.115789,,,,,,,
1505916306.086534,-0.472915,1.362554,2.021557,0.093631,0.656574,0.082295,-0.094167,-0.978396,-0.184050,-0.030543,-0.139341,-0.080354,-15.190120,-35.899193,-11.363673,,,,,,,
1505916306.106526,-0.479649,1.365069,2.033191,0.172982,0.014812,0.032848,-0.094269,-0.978913,-0.181228,-0.337082,-0.318710,-0.196518,-15.119311,-35.900017,-11.455128,,,,,,,
1505916306.126491,-0.495555,1.369286,2.048291,0.342982,-0.079438,0.026870,-0.095175,-0.979765,-0.176072,-0.336389,-0.276506,-0.335112,-15.153661,-35.944431,-11.268955,,,,,,,
1505916306.146454,-0.515741,1.376295,2.064660,0.355134,-0.267263,-0.043803,-0.095320,-0.981144,-0.168137,-0.179414,-0.021724,-0.328231,-15.181103,-36.032593,-10.945818,,,,,,,
1505916306.166425,-0.530497,1.380358,2.074168,0.144621,-0.262483,-0.020401,-0.095773,-0.981921,-0.163273,-0.024008,0.215762,-0.209408,-15.207870,-36.088997,-10.720527,,,,,,,
1505916306.186391,-0.536822,1.381705,2.074945,0.034806,-0.281834,-0.022245,-0.096128,-0.982175,-0.161527,0.049924,0.251554,-0.114749,-15.257379,-36.127747,-10.517748,,,,,,,
1505916306.206358,-0.547762,1.382944,2.081307,0.141440,-0.191556,0.043195,-0.097255,-0.982408,-0.159426,0.051524,0.099824,-0.016218,-15.313094,-36.138889,-10.397812,,,,,,,
1505916306.226324,-0.571267,1.386919,2.102449,0.344891,-0.131664,0.055483,-0.098863,-0.983142,-0.153810,0.132783,-0.156720,-0.047560,-15.367563,-36.156490,-10.255287,,,,,,,
1505916306.246289,-0.601116,1.393573,2.127214,0.407996,-0.410626,-0.056132,-0.099707,-0.984337,-0.145393,0.247412,-0.221001,-0.205117,-15.447618,-36.234993,-9.849926,,,,,,,
1505916306.266256,-0.610104,1.400722,2.124452,0.169811,-0.606570,-0.316842,-0.096975,-0.985572,-0.138720,0.202398,0.010383,-0.220319,-15.436379,-36.349331,-9.437637,,,,,,,
1505916306.286224,-0.577862,1.404299,2.084432,-0.150670,-0.175263,-0.382558,-0.090527,-0.986171,-0.138820,0.092999,0.130123,-0.232426,-15.317874,-36.442009,-9.271856,,,,,,,
1505916306.306175,-0.532003,1.403633,2.040101,-0.229714,0.249115,-0.227322,-0.084401,-0.986061,-0.143390,0.017247,0.117332,-0.167492,-15.016704,-36.531193,-9.412508,,,,,,,
1505916306.326156,-0.504788,1.401397,2.019018,-0.153545,0.299362,-0.027363,-0.081534,-0.985686,-0.147563,-0.021722,0.088576,-0.076665,-14.849712,-36.536564,-9.653503,,,,,,,
1505916306.346117,-0.495362,1.399179,2.012345,-0.113481,0.032518,-0.012668,-0.081179,-0.985310,-0.150248,-0.105040,0.069248,-0.029622,-14.818106,-36.524464,-9.747411,,,,,,,
1505916306.366069,-0.475294,1.399058,1.989053,-0.097051,-0.255259,-0.304538,-0.078202,-0.985289,-0.151953,-0.134308,0.091536,-0.066400,-14.749836,-36.519966,-9.867081,,,,,,,
1505916306.386054,-0.420368,1.401814,1.925602,-0.121797,-0.414188,-0.657994,-0.068633,-0.985756,-0.153537,-0.067597,0.092904,-0.100125,-14.706876,-36.537575,-9.866011,,,,,,,
1505916306.406021,-0.348571,1.404242,1.845570,-0.155471,-0.308042,-0.636136,-0.056625,-0.986162,-0.155815,0.054595,0.173616,-0.063957,-14.170932,-36.759144,-9.827238,,,,,,,
1505916306.425975,-0.285847,1.404155,1.778270,-0.185187,-0.089945,-0.454005,-0.046771,-0.986147,-0.159140,0.130908,0.188601,-0.001977,-13.689683,-36.924629,-9.888838,,,,,,,
1505916306.445951,-0.238836,1.402423,1.730421,-0.190443,0.015740,-0.321669,-0.039645,-0.985859,-0.162822,0.172671,0.131412,0.019771,-13.404055,-36.994888,-10.016700,,,,,,,
1505916306.465920,-0.201537,1.399875,1.692958,-0.190080,0.010168,-0.267081,-0.034048,-0.985428,-0.166648,0.174963,0.077454,-0.000604,-13.233339,-37.025898,-10.128486,,,,,,,
1505916306.485885,-0.168696,1.397439,1.659147,-0.165508,-0.038727,-0.258661,-0.028961,-0.985011,-0.170041,0.156783,0.063564,-0.005053,-13.132141,-37.042004,-10.201055,,,,,,,
1505916306.505828,-0.140359,1.395011,1.629780,-0.156695,-0.011320,-0.204895,-0.024466,-0.984590,-0.173161,0.044729,0.041596,0.008733,-12.813001,-37.096893,-10.405401,,,,,,,
1505916306.525820,-0.120618,1.392660,1.610543,-0.123909,0.072341,-0.120658,-0.021321,-0.984176,-0.175909,0.022298,0.040053,0.025579,-12.741030,-37.105659,-10.462355,,,,,,,
1505916306.545784,-0.108960,1.391181,1.601030,-0.055594,0.128517,-0.054582,-0.019427,-0.983913,-0.177592,0.017779,0.033183,0.070017,-12.590450,-37.112530,-10.619102,,,,,,,
1505916306.565733,-0.103505,1.391090,1.597781,0.016508,0.093381,-0.012595,-0.018468,-0.983896,-0.177784,0.041447,0.056437,0.068882,-12.535703,-37.116848,-10.668669,,,,,,,
1505916306.585719,-0.103414,1.391581,1.598610,0.021675,0.022025,0.015922,-0.018401,-0.983984,-0.177305,0.063308,0.087179,0.063444,-12.520845,-37.121613,-10.669540,,,,,,,
1505916306.605684,-0.106395,1.391450,1.601588,-0.025367,-0.015355,0.031480,-0.018944,-0.983961,-0.177378,0.063316,0.104337,0.062815,-12.522295,-37.122677,-10.664128,,,,,,,
1505916306.625612,-0.111621,1.390272,1.605643,-0.060580,-0.102698,0.051092,-0.020000,-0.983750,-0.178428,0.021358,0.098908,0.105079,-12.572741,-37.099194,-10.686482,,,,,,,
1505916306.645590,-0.122953,1.389243,1.613754,-0.026783,-0.195345,0.097858,-0.022144,-0.983564,-0.179195,0.004780,0.064268,0.122615,-12.572741,-37.099194,-10.686482,,,,,,,
1505916306.665556,-0.140459,1.388951,1.627171,0.015439,-0.218836,0.137594,-0.025318,-0.983512,-0.179063,-0.064526,-0.071572,0.031908,-12.712675,-37.056244,-10.669924,,,,,,,
1505916306.685495,-0.158537,1.389083,1.641876,0.032622,-0.138941,0.111405,-0.028530,-0.983536,-0.178449,0.003796,-0.118210,0.033231,-12.891850,-37.017391,-10.589500,,,,,,,
1505916306.705463,-0.164763,1.390306,1.646506,0.093941,-0.079722,-0.020672,-0.029443,-0.983756,-0.177081,0.044565,-0.155343,0.083636,-12.973864,-37.001831,-10.543633,,,,,,,
1505916306.725456,-0.157556,1.393058,1.635677,0.119914,-0.235227,-0.175674,-0.027741,-0.984246,-0.174614,0.065721,-0.258597,0.263008,-12.963141,-37.048874,-10.390512,,,,,,,
1505916306.745405,-0.136827,1.394687,1.608565,-0.027665,-0.315772,-0.293778,-0.023898,-0.984533,-0.173563,0.021593,-0.163157,0.245447,-12.891005,-37.103939,-10.283207,,,,,,,
1505916306.765389,-0.101247,1.390311,1.565767,-0.402213,-0.349161,-0.363690,-0.018144,-0.983757,-0.178588,0.025224,-0.068810,0.118209,-12.776128,-37.154564,-10.243719,,,,,,,
1505916306.785354,-0.058677,1.379852,1.517174,-0.402772,-0.172381,-0.199858,-0.011130,-0.981825,-0.189459,0.149405,-0.220033,-0.174814,-12.407998,-37.168144,-10.639331,,,,,,,
1505916306.805299,-0.046540,1.374964,1.506049,-0.155066,0.142069,-0.040119,-0.009053,-0.980886,-0.194372,0.263523,-0.370234,-0.248087,-12.331563,-37.141777,-10.818759,,,,,,,
1505916306.825289,-0.041068,1.376721,1.501367,0.259916,-0.029145,-0.078296,-0.007918,-0.981226,-0.192697,0.194136,-0.363683,-0.255835,-12.285338,-37.125954,-10.925140,,,,,,,
1505916306.845253,-0.030401,1.387394,1.489821,0.640595,-0.004659,-0.147628,-0.005544,-0.983229,-0.182292,-0.042445,-0.261904,-0.156453,-12.190706,-37.260269,-10.568048,,,,,,,
1505916306.865205,-0.015449,1.398383,1.476036,0.420179,0.109614,-0.125766,-0.002650,-0.985174,-0.171539,-0.115453,0.151617,-0.214264,-12.106222,-37.384373,-10.221178,,,,,,,
1505916306.885188,0.001589,1.401430,1.460829,0.004063,0.103447,-0.124007,0.000268,-0.985692,-0.168558,-0.129098,0.332188,-0.225394,-12.019399,-37.470695,-10.005299,,,,,,,
1505916306.905152,0.012221,1.398735,1.453360,-0.187405,0.205742,-0.029219,0.002092,-0.985234,-0.171200,-0.044390,0.387944,-0.092258,-11.865167,-37.505127,-10.060217,,,,,,,
1505916306.925111,0.021190,1.394445,1.448257,-0.218602,0.176168,-0.084203,0.003717,-0.984490,-0.175400,-0.032343,0.193414,-0.027970,-11.818026,-37.479446,-10.210293,,,,,,,
1505916306.945087,0.034595,1.390841,1.438084,-0.136699,0.182630,-0.066539,0.006191,-0.983852,-0.178878,-0.043376,-0.179921,-0.098633,-11.715924,-37.456783,-10.409195,,,,,,,
1505916306.965052,0.028546,1.389796,1.449282,-0.024526,0.292072,0.221812,0.005138,-0.983664,-0.179940,-0.100307,-0.333948,-0.195106,-11.662292,-37.429893,-10.564986,,,,,,,
1505916306.985019,-0.004735,1.388516,1.490333,-0.101281,0.401484,0.435136,-0.000858,-0.983433,-0.181271,-0.048916,-0.213055,-0.178638,-11.774744,-37.372810,-10.642055,,,,,,,
1505916307.004985,-0.051075,1.385781,1.543475,-0.120525,0.170482,0.489319,-0.009392,-0.982933,-0.183722,-0.044304,-0.120491,-0.191446,-11.954490,-37.279800,-10.767143,,,,,,,
1505916307.024951,-0.095019,1.384178,1.588446,0.005199,-0.037164,0.387076,-0.017603,-0.982637,-0.184700,-0.070669,0.058092,-0.057167,-12.424882,-37.078819,-10.927403,,,,,,,
1505916307.044918,-0.133308,1.385157,1.627546,0.126009,0.056824,0.347668,-0.024532,-0.982818,-0.182937,-0.055424,0.107986,0.037338,-12.697909,-37.000481,-10.878984,,,,,,,
1505916307.064884,-0.171184,1.386411,1.670167,0.093558,0.287169,0.410980,-0.031232,-0.983049,-0.180663,-0.037768,0.129976,0.053969,-12.818196,-36.970112,-10.841099,,,,,,,
1505916307.084823,-0.214476,1.384473,1.721891,-0.067386,0.414919,0.531808,-0.039427,-0.982692,-0.181003,-0.017122,0.225795,-0.027051,-13.196025,-36.824463,-10.883418,,,,,,,
1505916307.104793,-0.261587,1.378602,1.777574,-0.210984,0.326069,0.598956,-0.049399,-0.981588,-0.184515,-0.036737,0.272756,-0.082728,-13.520366,-36.646832,-11.083062,,,,,,,
1505916307.124775,-0.303040,1.370801,1.824075,-0.258190,0.145714,0.496914,-0.059286,-0.980067,-0.189613,-0.066858,0.268382,-0.073083,-13.703558,-36.541542,-11.205042,,,,,,,
1505916307.144722,-0.332965,1.357497,1.857052,-0.179395,0.132755,0.347390,-0.069189,-0.977338,-0.200059,-0.134760,0.107511,0.015245,-14.171229,-36.260181,-11.532574,,,,,,,
1505916307.164716,-0.351017,1.353790,1.879514,-0.038892,0.247178,0.266455,-0.074034,-0.976546,-0.202178,-0.118059,-0.006577,0.051574,-14.446665,-36.033363,-11.896025,,,,,,,
1505916307.184681,-0.367845,1.352763,1.903248,0.084756,0.339979,0.254903,-0.077786,-0.976325,-0.201840,-0.085696,-0.024179,0.059674,-14.510391,-35.992443,-11.942240,,,,,,,
1505916307.204648,-0.401414,1.359331,1.942908,0.166665,0.252086,0.215238,-0.082009,-0.977724,-0.193208,-0.003898,0.025378,0.068498,-14.614801,-35.935116,-11.987480,,,,,,,
1505916307.224615,-0.420492,1.361081,1.966357,0.173785,0.168278,0.179433,-0.084982,-0.978090,-0.190046,-0.027201,0.064760,0.089796,-14.767366,-35.969872,-11.692639,,,,,,,
1505916307.244582,-0.434966,1.362152,1.984882,0.096392,0.207676,0.133156,-0.087282,-0.978313,-0.187846,-0.044371,0.091319,0.094432,-14.833989,-35.960106,-11.638227,,,,,,,
1505916307.264548,-0.440231,1.362248,1.995458,0.029676,0.272641,0.080671,-0.088230,-0.978332,-0.187299,-0.035489,0.132782,0.080320,-14.892208,-35.935268,-11.640596,,,,,,,
1505916307.284514,-0.441480,1.361844,2.001823,0.005574,0.221662,0.058800,-0.088632,-0.978249,-0.187546,-0.013586,0.126518,0.052567,-14.886057,-35.921806,-11.689903,,,,,,,
1505916307.304481,-0.442700,1.361719,2.006072,0.018770,0.114337,0.052877,-0.088914,-0.978223,-0.187549,-0.026199,0.105985,0.040652,-14.878645,-35.910133,-11.735125,,,,,,,
1505916307.324446,-0.483145,1.358307,2.048580,0.020670,0.150055,0.144184,-0.097974,-0.977509,-0.186754,-0.072131,-0.021835,0.000872,-14.884617,-35.899097,-11.761275,,,,,,,
1505916307.344392,-0.493366,1.357422,2.063346,0.053298,0.251068,0.155698,-0.100288,-0.977322,-0.186505,-0.074074,-0.096042,0.023282,-15.255147,-35.740067,-11.770847,,,,,,,
1505916307.364380,-0.504296,1.358377,2.080412,0.176249,0.300364,0.125672,-0.101869,-0.977524,-0.184581,-0.064192,-0.124634,0.048274,-15.286574,-35.720791,-11.788577,,,,,,,
1505916307.384347,-0.517905,1.361075,2.100489,0.232948,0.300533,0.114232,-0.103065,-0.978089,-0.180885,-0.040581,-0.162628,0.115547,-15.300934,-35.722721,-11.764069,,,,,,,
1505916307.404310,-0.533699,1.362818,2.122527,0.153011,0.286185,0.191848,-0.105042,-0.978450,-0.177767,-0.015808,-0.212361,0.166445,-15.323087,-35.740993,-11.679425,,,,,,,
1505916307.424274,-0.552064,1.361885,2.147625,0.066629,0.333536,0.259088,-0.108767,-0.978257,-0.176585,-0.019254,-0.211699,0.190715,-15.375254,-35.723782,-11.663527,,,,,,,
1505916307.444244,-0.625124,1.371471,2.226751,-0.044505,0.348861,0.115020,-0.115874,-0.980200,-0.160563,-0.134278,0.069815,-0.002584,-15.670515,-35.782143,-11.076908,,,,,,,
1505916307.464211,-0.609481,1.368037,2.220810,-0.185119,0.654104,0.030342,-0.115274,-0.979515,-0.165115,-0.021262,-0.006890,-0.028260,-15.649807,-35.704674,-11.352724,,,,,,,
1505916307.484179,-0.602686,1.367470,2.225295,0.095795,0.319534,0.081411,-0.114464,-0.979400,-0.166351,0.088417,-0.177536,-0.044510,-15.582551,-35.683014,-11.512224,,,,,,,
1505916307.504131,-0.613271,1.368482,2.233024,0.081673,-0.285019,-0.007996,-0.115649,-0.979604,-0.164320,-0.381895,-0.284327,-0.308351,-15.571991,-35.679394,-11.537702,,,,,,,
1505916307.524111,-0.629063,1.372986,2.245263,0.373189,-0.165144,-0.052653,-0.115632,-0.980499,-0.158904,-0.168899,-0.117111,-0.319642,-15.607271,-35.727390,-11.339815,,,,,,,
1505916307.544056,-0.651129,1.380145,2.263582,0.341548,-0.216162,-0.069215,-0.114852,-0.981881,-0.150727,-0.059632,0.021890,-0.280135,-15.602728,-35.810703,-11.080297,,,,,,,
