timestamp(unix),attitude_roll(radians),attitude_pitch(radians),attitude_yaw(radians),rotation_rate_x(radians/s),rotation_rate_y(radians/s),rotation_rate_z(radians/s),gravity_x(G),gravity_y(G),gravity_z(G),user_acc_x(G),user_acc_y(G),user_acc_z(G),magnetic_field_x(microteslas),magnetic_field_y(microteslas),magnetic_field_z(microteslas),latitude(degree),longitude(degree),altitude(meter),speed(m/s),course(degree),timestamp(unix),User Mark
1505840934.359039,0.020706,0.002080,2.597153,0.001095,-0.001289,-0.000514,0.020704,-0.002080,-0.999783,-0.000929,-0.004497,-0.004184,-8.498389,4.367660,-41.751499,,,,,,,
1505840934.379023,0.020714,0.002087,2.597142,0.000031,-0.002354,-0.000527,0.020713,-0.002087,-0.999783,0.001382,-0.000324,-0.005664,-8.498133,4.364714,-41.751862,,,,,,,
,,,,,,,,,,,,,,,,42.293409,-71.264211,59.843155,-1.000000,-1.000000,1505840921.978444,
1505840934.398992,0.020700,0.001970,2.597137,0.000021,0.000835,-0.000507,0.020698,-0.001970,-0.999784,0.000649,0.004656,-0.002902,-8.499136,4.364435,-41.751686,,,,,,,
,,,,,,,,,,,,,,,,42.293409,-71.264211,59.843155,-1.000000,-1.000000,1505840912.978444,
1505840934.418945,0.020687,0.001902,2.597137,0.001073,0.000832,0.000570,0.020686,-0.001902,-0.999784,-0.000193,-0.000127,-0.002444,-8.499103,4.371995,-41.750900,,,,,,,
,,,,,,,,,,,,,,,,42.293409,-71.264211,59.843155,-1.000000,-1.000000,1505840921.978444,
1505840934.438931,0.020717,0.001939,2.597116,0.001091,-0.000226,-0.000507,0.020716,-0.001939,-0.999784,0.001776,-0.001784,-0.004352,-8.498976,4.371991,-41.750923,,,,,,,
1505840934.458902,0.020732,0.001999,2.597109,0.001089,-0.000307,-0.000594,0.020730,-0.001999,-0.999783,0.000724,-0.000228,-0.006412,-8.497679,4.367969,-41.751610,,,,,,,
1505840934.478850,0.020732,0.001945,2.597098,-0.001049,0.000752,-0.000600,0.020730,-0.001945,-0.999783,-0.000528,0.002098,-0.004154,-8.496767,4.367399,-41.751854,,,,,,,
1505840934.498842,0.020689,0.001922,2.597074,0.001095,-0.002433,-0.000606,0.020688,-0.001922,-0.999784,0.001041,0.001586,-0.003619,-8.497544,4.369565,-41.751472,,,,,,,
1505840934.518811,0.020677,0.001931,2.597052,-0.001046,-0.000311,-0.000606,0.020676,-0.001931,-0.999784,0.000290,-0.000449,-0.003389,-8.499845,4.370028,-41.750957,,,,,,,
1505840934.538757,0.020650,0.001992,2.597045,-0.001042,-0.001374,-0.000613,0.020648,-0.001992,-0.999785,-0.000293,-0.000617,-0.002931,-8.499709,4.369796,-41.751007,,,,,,,
,,,,,,,,,,,,,,,,42.293431,-71.264317,59.843155,-1.000000,-1.000000,1505840934.489190,
1505840934.558732,0.020618,0.002002,2.597022,-0.001045,-0.000311,-0.000606,0.020617,-0.002002,-0.999785,-0.000262,0.000583,-0.005494,-8.500961,4.367390,-41.751007,,,,,,,
1505840934.578711,0.020635,0.001946,2.597016,0.000010,-0.001377,0.000464,0.020634,-0.001946,-0.999785,0.001049,0.001641,-0.003526,-8.502244,4.367309,-41.750748,,,,,,,
,,,,,,,,,,,,,,,,42.293391,-71.264378,59.843155,-1.000000,-1.000000,1505840934.545218,
1505840934.598673,0.020659,0.001874,2.596992,0.000030,0.000704,-0.001717,0.020657,-0.001874,-0.999785,0.000537,0.000806,-0.004594,-8.501624,4.368851,-41.750717,,,,,,,
,,,,,,,,,,,,,,,,42.293352,-71.264437,59.843155,-1.000000,-1.000000,1505840934.573197,
,,,,,,,,,,,,,,,,42.293314,-71.264495,59.843155,-1.000000,-1.000000,1505840934.579611,
1505840934.618637,0.020677,0.001975,2.596990,0.001076,-0.001431,0.000419,0.020675,-0.001975,-0.999784,0.000992,-0.001854,-0.003176,-8.500469,4.368986,-41.750935,,,,,,,
1505840934.638629,0.020682,0.001988,2.596977,-0.001058,-0.001435,0.000406,0.020680,-0.001988,-0.999784,0.000789,-0.002041,-0.002840,-8.500216,4.368318,-41.751057,,,,,,,
1505840934.658600,0.020668,0.001959,2.596959,-0.002100,-0.000364,-0.001736,0.020666,-0.001959,-0.999785,-0.000311,0.000387,-0.003084,-8.499854,4.366745,-41.751297,,,,,,,
1505840934.678568,0.020657,0.002036,2.596934,0.002157,-0.001424,-0.000646,0.020655,-0.002036,-0.999785,0.000005,-0.002130,-0.003588,-8.500148,4.366731,-41.751236,,,,,,,
1505840934.698540,0.020669,0.002022,2.596927,0.000020,-0.000365,-0.000652,0.020668,-0.002022,-0.999784,0.001457,-0.000831,-0.005495,-8.500993,4.365180,-41.751228,,,,,,,
1505840934.718509,0.020688,0.002058,2.596897,0.001115,-0.000352,-0.002787,0.020686,-0.002058,-0.999784,-0.000438,-0.000841,-0.004046,-8.499378,4.364112,-41.751671,,,,,,,
1505840934.738477,0.020655,0.002041,2.596890,0.001079,-0.002494,0.000413,0.020654,-0.002041,-0.999785,-0.000100,0.001400,-0.004137,-8.500348,4.362556,-41.751633,,,,,,,
1505840934.758449,0.020661,0.002040,2.596865,-0.001041,-0.001479,-0.000708,0.020660,-0.002040,-0.999784,0.000519,-0.000554,-0.004671,-8.501216,4.363670,-41.751343,,,,,,,
1505840934.778417,0.020691,0.002059,2.596862,-0.001044,-0.000416,-0.000702,0.020689,-0.002059,-0.999784,0.000215,-0.000718,-0.003680,-8.499995,4.363098,-41.751648,,,,,,,
1505840934.798388,0.020699,0.002057,2.596848,-0.002114,0.000645,-0.000702,0.020698,-0.002057,-0.999784,0.000390,-0.001025,-0.003833,-8.500409,4.362864,-41.751587,,,,,,,
1505840934.818358,0.020708,0.002043,2.596834,0.000026,-0.001477,-0.000702,0.020706,-0.002043,-0.999784,0.000625,-0.000139,-0.003421,-8.498850,4.363313,-41.751862,,,,,,,
1505840934.838327,0.020679,0.002004,2.596820,-0.001038,-0.002542,-0.000715,0.020678,-0.002004,-0.999784,0.000563,0.001119,-0.004580,-8.500473,4.363516,-41.751507,,,,,,,
1505840934.858297,0.020680,0.002015,2.596806,0.000025,-0.001477,-0.000702,0.020678,-0.002015,-0.999784,0.001096,-0.000854,-0.004137,-8.500880,4.364491,-41.751324,,,,,,,
,,,,,,,,,,,,,,,,42.293765,-71.264143,60.414902,-1.000000,-1.000000,1505840934.857280,
1505840934.878267,0.020677,0.002005,2.596771,0.000030,0.001718,-0.001754,0.020675,-0.002005,-0.999784,0.000214,0.000906,-0.004214,-8.501144,4.363401,-41.751385,,,,,,,
1505840934.898237,0.020683,0.001989,2.596757,0.001112,-0.002569,-0.001807,0.020681,-0.001989,-0.999784,0.000559,0.000447,-0.002993,-8.500589,4.364599,-41.751369,,,,,,,
1505840934.918206,0.020661,0.001994,2.596747,-0.002106,-0.001518,-0.000749,0.020659,-0.001994,-0.999785,0.000459,-0.000265,-0.001970,-8.501420,4.364174,-41.751244,,,,,,,
1505840934.938177,0.020667,0.002021,2.596738,-0.001060,0.000606,0.000341,0.020665,-0.002021,-0.999784,-0.000341,0.000114,-0.005404,-8.501318,4.362621,-41.751431,,,,,,,
1505840934.958146,0.020687,0.002009,2.596719,-0.001039,-0.001516,-0.000743,0.020686,-0.002009,-0.999784,0.000066,0.000880,-0.003603,-8.500415,4.362556,-41.751621,,,,,,,
1505840934.978115,0.020664,0.002067,2.596715,0.001084,-0.002580,0.000335,0.020663,-0.002067,-0.999784,-0.000064,-0.002725,-0.004229,-8.500515,4.363417,-41.751507,,,,,,,
1505840934.998059,0.020610,0.002051,2.596705,0.000028,-0.001514,-0.000736,0.020608,-0.002051,-0.999786,0.000113,0.001609,-0.003632,-8.502628,4.360185,-41.751415,,,,,,,
1505840935.018035,0.020632,0.002064,2.596691,-0.001045,0.000610,-0.000730,0.020630,-0.002064,-0.999785,-0.000153,-0.000911,-0.004976,-8.503116,4.361389,-41.751194,,,,,,,
1505840935.038011,0.020604,0.002057,2.596666,0.000042,-0.001509,-0.001807,0.020602,-0.002057,-0.999786,0.000745,-0.000201,-0.002000,-8.503531,4.361068,-41.751141,,,,,,,
1505840935.057996,0.020577,0.002124,2.596645,0.001101,-0.002604,-0.000766,0.020576,-0.002124,-0.999786,0.000588,0.000171,-0.002289,-8.505714,4.360062,-41.750801,,,,,,,
1505840935.077941,0.020555,0.002125,2.596619,-0.001033,-0.002609,-0.000779,0.020553,-0.002125,-0.999786,0.001053,-0.000072,-0.002807,-8.506827,4.357413,-41.750854,,,,,,,
1505840935.097917,0.020518,0.002092,2.596614,-0.002116,-0.006874,0.001331,0.020516,-0.002092,-0.999787,0.002280,0.011217,0.000382,-8.506994,4.358328,-41.750725,,,,,,,
1505840935.117902,0.020218,0.001611,2.596579,-0.001084,0.013336,-0.000683,0.020217,-0.001611,-0.999794,0.013749,-0.010307,0.012001,-8.511950,4.379641,-41.747482,,,,,,,
1505840935.137872,0.019977,0.001914,2.596563,0.003266,-0.008977,-0.001862,0.019975,-0.001914,-0.999799,-0.003389,-0.014047,-0.035205,-8.522512,4.378537,-41.745445,,,,,,,
1505840935.157823,0.019477,0.002340,2.596508,-0.001054,-0.004752,0.001350,0.019476,-0.002340,-0.999808,0.024698,-0.020320,-0.002451,-8.553956,4.347348,-41.742268,,,,,,,
1505840935.177808,0.018938,0.002487,2.596483,-0.002150,0.014390,-0.000683,0.018937,-0.002487,-0.999818,0.016494,-0.002182,-0.026565,-8.555385,4.341603,-41.742577,,,,,,,
1505840935.197783,0.018845,0.002622,2.596499,0.000056,-0.018573,0.001274,0.018843,-0.002622,-0.999819,0.004853,-0.006503,0.005221,-8.575670,4.341347,-41.738441,,,,,,,
1505840935.217729,0.018477,0.002887,2.596521,0.001101,-0.011130,0.001325,0.018476,-0.002887,-0.999825,0.004061,-0.020199,-0.016242,-8.580929,4.335916,-41.737926,,,,,,,
1505840935.237712,0.018314,0.003953,2.596536,0.001087,-0.003712,0.001343,0.018313,-0.003953,-0.999824,-0.000598,-0.024475,-0.001640,-8.598179,4.303570,-41.737724,,,,,,,
1505840935.257692,0.018424,0.004484,2.596520,-0.001026,-0.000517,-0.000792,0.018423,-0.004484,-0.999820,0.003367,-0.025026,-0.003308,-8.599185,4.281520,-41.739780,,,,,,,
1505840935.277617,0.018466,0.005080,2.596537,-0.002101,-0.001587,0.000266,0.018464,-0.005079,-0.999817,0.002120,-0.033540,-0.004074,-8.596246,4.259123,-41.742680,,,,,,,
1505840935.297603,0.018424,0.006021,2.596569,0.000026,-0.006908,0.002388,0.018423,-0.006021,-0.999812,0.001719,-0.069311,-0.002706,-8.594193,4.195118,-41.749584,,,,,,,
1505840935.317584,0.018243,0.005997,2.596648,-0.001066,-0.007984,0.004517,0.018242,-0.005996,-0.999816,-0.000374,-0.082077,-0.010087,-8.601220,4.196585,-41.747986,,,,,,,
1505840935.337554,0.018064,0.008088,2.596724,-0.002074,-0.010097,0.001285,0.018063,-0.008088,-0.999804,-0.001370,-0.091766,-0.001630,-8.604116,4.198133,-41.747234,,,,,,,
1505840935.357509,0.018048,0.008073,2.596799,0.001076,-0.002659,0.003491,0.018046,-0.008073,-0.999805,0.000722,-0.107283,-0.009396,-8.609642,4.112108,-41.754658,,,,,,,
1505840935.377494,0.018015,0.008054,2.596906,-0.000015,-0.003754,0.005598,0.018013,-0.008054,-0.999805,0.000374,-0.100864,0.013309,-8.609899,4.112752,-41.754539,,,,,,,
1505840935.397460,0.017948,0.010797,2.597040,-0.001100,-0.002703,0.007740,0.017946,-0.010797,-0.999781,0.001341,-0.111380,0.007059,-8.610831,4.113835,-41.754242,,,,,,,
1505840935.417415,0.017893,0.010778,2.597195,-0.001122,-0.004840,0.009869,0.017891,-0.010778,-0.999782,0.001473,-0.119654,-0.018010,-8.613824,4.002585,-41.764435,,,,,,,
1505840935.437402,0.017836,0.010866,2.597445,0.004143,-0.000597,0.014210,0.017834,-0.010865,-0.999782,-0.001461,-0.119292,0.006069,-8.615509,4.002982,-41.764050,,,,,,,
1505840935.457366,0.017594,0.013988,2.597698,0.000985,-0.000594,0.012049,0.017591,-0.013988,-0.999747,-0.009382,-0.113438,-0.013711,-8.624907,3.873907,-41.774281,,,,,,,
1505840935.477316,0.018005,0.016709,2.597858,-0.002174,0.008989,0.007804,0.018001,-0.016708,-0.999698,0.005467,-0.101074,-0.005184,-8.615023,3.876133,-41.776112,,,,,,,
1505840935.497312,0.018365,0.021482,2.598064,0.003207,-0.027175,0.014044,0.018360,-0.021480,-0.999601,0.007061,-0.085530,-0.018069,-8.592289,3.658567,-41.800411,,,,,,,
1505840935.517265,0.017553,0.023706,2.598492,0.006248,-0.003817,0.021700,0.017547,-0.023704,-0.999565,-0.015808,-0.077889,0.015480,-8.596106,3.565241,-41.807686,,,,,,,
1505840935.537251,0.017088,0.027789,2.598879,-0.001225,0.017426,0.018551,0.017081,-0.027785,-0.999468,0.004984,-0.075517,-0.020704,-8.648893,3.389552,-41.811413,,,,,,,
1505840935.557220,0.017640,0.031005,2.599354,0.003116,-0.030433,0.024713,0.017630,-0.031000,-0.999364,0.009683,-0.056127,-0.029292,-8.617901,3.237811,-41.829834,,,,,,,
1505840935.577178,0.016962,0.032521,2.599699,0.007446,-0.011249,0.016287,0.016953,-0.032516,-0.999327,-0.007263,-0.058579,0.011168,-8.619225,3.182658,-41.833794,,,,,,,
1505840935.597161,0.016404,0.034443,2.600100,0.008413,-0.003837,0.022765,0.016393,-0.034436,-0.999272,-0.003072,-0.063876,-0.038752,-8.662012,3.045596,-41.835159,,,,,,,
1505840935.617130,0.016522,0.034448,2.600721,0.008227,0.020575,0.031478,0.016512,-0.034441,-0.999270,-0.019380,-0.047255,0.024402,-8.663194,3.049259,-41.834652,,,,,,,
1505840935.637100,0.017248,0.034568,2.601141,-0.004516,0.052499,0.019814,0.017237,-0.034561,-0.999254,-0.016917,-0.052552,-0.040922,-8.643399,3.047859,-41.838848,,,,,,,
1505840935.657050,0.016989,0.035607,2.601651,-0.014934,-0.076212,0.029685,0.016977,-0.035599,-0.999222,0.052588,-0.052307,0.004700,-8.605768,3.001239,-41.849968,,,,,,,
1505840935.677039,0.016368,0.035662,2.602155,0.004223,-0.022976,0.021553,0.016357,-0.035654,-0.999230,-0.040954,-0.030661,-0.000129,-8.645305,3.013451,-41.840942,,,,,,,
1505840935.697009,0.015816,0.036524,2.602724,0.000723,0.035440,0.031525,0.015804,-0.036515,-0.999208,-0.031826,-0.030120,-0.018202,-8.689995,2.980470,-41.834049,,,,,,,
1505840935.716979,0.016254,0.036629,2.603271,0.003121,-0.011303,0.021600,0.016243,-0.036620,-0.999197,0.016854,-0.029115,-0.020700,-8.652315,2.983020,-41.841675,,,,,,,
1505840935.736948,0.016552,0.037578,2.603556,-0.010556,-0.031483,0.011757,0.016540,-0.037570,-0.999157,-0.015777,-0.025297,0.020016,-8.634133,2.943642,-41.848221,,,,,,,
1505840935.756917,0.016734,0.037721,2.603903,0.016911,0.025947,0.019765,0.016721,-0.037712,-0.999149,-0.039167,-0.017662,0.017734,-8.644466,2.948508,-41.845745,,,,,,,
1505840935.776888,0.018535,0.038207,2.604358,0.001834,0.012035,0.033512,0.018521,-0.038198,-0.999099,0.032749,-0.015208,-0.053468,-8.595528,2.942593,-41.856239,,,,,,,
1505840935.796853,0.019168,0.038649,2.605088,0.040006,0.071626,0.038383,0.019152,-0.038640,-0.999070,-0.053652,-0.024852,0.096024,-8.553880,2.927627,-41.865818,,,,,,,
1505840935.816828,0.019606,0.038506,2.605590,-0.039481,-0.033708,0.021208,0.019591,-0.038496,-0.999067,0.042009,0.023725,-0.095019,-8.489924,2.910051,-41.880062,,,,,,,
1505840935.836797,0.019563,0.038518,2.606086,0.011729,-0.019770,0.018385,0.019547,-0.038508,-0.999067,-0.014893,-0.009969,-0.013796,-8.499141,2.932445,-41.876629,,,,,,,
1505840935.856753,0.018949,0.038527,2.606504,0.014711,0.005699,0.029267,0.018934,-0.038517,-0.999079,-0.005643,0.001133,0.013803,-8.528151,2.936557,-41.870445,,,,,,,
1505840935.876737,0.019696,0.038675,2.607025,0.004974,0.069488,0.025310,0.019680,-0.038665,-0.999058,-0.000759,0.000396,-0.106380,-8.520569,2.932750,-41.872253,,,,,,,
1505840935.896706,0.020041,0.038558,2.607478,-0.007584,-0.007079,0.023702,0.020025,-0.038548,-0.999056,0.026789,-0.007335,0.117907,-8.475522,2.939457,-41.880924,,,,,,,
1505840935.916669,0.019833,0.038446,2.607875,-0.006282,-0.066589,0.019066,0.019817,-0.038436,-0.999065,0.027912,0.014328,-0.170369,-8.460525,2.945612,-41.883526,,,,,,,
1505840935.936646,0.019455,0.038123,2.608368,-0.020480,0.019472,0.024855,0.019440,-0.038114,-0.999084,-0.041809,0.021223,0.016372,-8.502063,2.957479,-41.874279,,,,,,,
1505840935.956615,0.019668,0.038033,2.608825,-0.019281,-0.029435,0.025639,0.019653,-0.038024,-0.999084,0.062028,0.000777,-0.025880,-8.490299,2.971252,-41.875687,,,,,,,
1505840935.976570,0.019308,0.036580,2.609469,0.026400,0.000391,0.033588,0.019294,-0.036572,-0.999145,-0.028983,0.035611,-0.020325,-8.492885,3.045681,-41.869816,,,,,,,
1505840935.996555,0.018931,0.036690,2.610091,-0.000222,0.012063,0.027073,0.018918,-0.036682,-0.999148,-0.012936,0.033645,-0.058423,-8.506742,3.040251,-41.867397,,,,,,,
1505840936.016525,0.019281,0.035488,2.610736,-0.008802,-0.002866,0.033356,0.019268,-0.035480,-0.999185,-0.021801,0.030414,0.084603,-8.493677,3.097114,-41.865883,,,,,,,
1505840936.036481,0.019426,0.035596,2.611489,0.011374,0.000334,0.039922,0.019412,-0.035589,-0.999178,0.007260,0.034429,-0.069929,-8.488741,3.103972,-41.866375,,,,,,,
1505840936.056457,0.020650,0.033767,2.612326,-0.009058,0.051327,0.040107,0.020636,-0.033761,-0.999217,0.019128,0.051217,-0.018422,-8.481429,3.106532,-41.867664,,,,,,,
1505840936.076427,0.019944,0.033931,2.613004,-0.004312,-0.065564,0.029791,0.019931,-0.033925,-0.999226,0.030408,0.024526,0.027058,-8.442477,3.184160,-41.869713,,,,,,,
1505840936.096385,0.019707,0.033636,2.613615,-0.001464,0.014137,0.038857,0.019694,-0.033629,-0.999240,-0.042979,0.045012,0.050296,-8.466405,3.202383,-41.863487,,,,,,,
1505840936.116363,0.019256,0.031954,2.614299,-0.004608,0.068425,0.022031,0.019245,-0.031949,-0.999304,-0.035907,0.035687,0.073706,-8.461452,3.209705,-41.863926,,,,,,,
1505840936.136317,0.019089,0.031795,2.614620,-0.007610,0.016340,0.018486,0.019078,-0.031789,-0.999313,-0.018483,0.055074,0.081237,-8.487895,3.288024,-41.852493,,,,,,,
1505840936.156284,0.018928,0.028604,2.615337,-0.002491,-0.015652,0.040814,0.018920,-0.028600,-0.999412,-0.006133,0.085454,-0.056527,-8.471936,3.297558,-41.854977,,,,,,,
1505840936.176257,0.019900,0.028490,2.615921,-0.033414,0.068370,0.020788,0.019891,-0.028486,-0.999396,-0.037118,0.049925,0.058097,-8.481093,3.427184,-41.842709,,,,,,,
1505840936.196251,0.020019,0.028469,2.616317,0.015017,-0.048453,0.015018,0.020010,-0.028465,-0.999394,0.064646,0.064536,-0.131785,-8.427746,3.447269,-41.851837,,,,,,,
1505840936.216222,0.020033,0.028432,2.616825,0.002797,0.051392,0.029470,0.020024,-0.028428,-0.999395,-0.067494,0.075761,0.085012,-8.445909,3.450341,-41.847923,,,,,,,
1505840936.236191,0.021030,0.026037,2.617002,0.010816,-0.018630,0.002320,0.021022,-0.026034,-0.999440,0.019246,0.070117,-0.018596,-8.445909,3.450341,-41.847923,,,,,,,
1505840936.256160,0.020204,0.025953,2.617265,-0.024646,-0.013471,0.020346,0.020196,-0.025951,-0.999459,-0.029260,0.076320,-0.017432,-8.423197,3.552339,-41.843967,,,,,,,
1505840936.276131,0.020520,0.022575,2.617713,-0.005461,0.001466,0.017337,0.020513,-0.022573,-0.999535,0.000468,0.084539,-0.024361,-8.413552,3.568038,-41.844570,,,,,,,
1505840936.296100,0.020627,0.022579,2.618055,-0.003411,0.005698,0.022730,0.020620,-0.022577,-0.999532,0.011851,0.075785,0.052068,-8.411498,3.705471,-41.833038,,,,,,,
1505840936.316071,0.020963,0.022263,2.618313,-0.007559,0.013182,0.012041,0.020957,-0.022261,-0.999533,0.031228,0.098845,-0.039271,-8.406354,3.710359,-41.833641,,,,,,,
1505840936.336040,0.021284,0.018647,2.618816,-0.011873,-0.043238,0.026667,0.021278,-0.018646,-0.999600,0.012032,0.092437,-0.017719,-8.357371,3.872502,-41.828758,,,,,,,
1505840936.356009,0.021506,0.018481,2.619252,-0.003529,0.010989,0.029186,0.021501,-0.018480,-0.999598,-0.038728,0.118318,-0.060094,-8.381870,3.881314,-41.823040,,,,,,,
1505840936.375966,0.022056,0.014320,2.619746,-0.017187,-0.004917,0.015085,0.022052,-0.014320,-0.999654,0.018689,0.108665,-0.061854,-8.364731,3.890006,-41.825661,,,,,,,
1505840936.395950,0.021858,0.014421,2.620122,0.008323,-0.015543,0.024812,0.021854,-0.014421,-0.999657,0.000455,0.101014,0.068078,-8.340126,4.068140,-41.813625,,,,,,,
1505840936.415918,0.022013,0.014181,2.620554,-0.008780,0.037625,0.015392,0.022009,-0.014180,-0.999657,-0.018683,0.114400,0.015740,-8.348353,4.067807,-41.812019,,,,,,,
1505840936.435889,0.022651,0.008969,2.620826,-0.007646,0.006798,0.015212,0.022648,-0.008969,-0.999703,0.028957,0.130200,0.038903,-8.309911,4.296177,-41.796829,,,,,,,
1505840936.455858,0.021595,0.008934,2.621199,-0.003270,-0.052754,0.020234,0.021592,-0.008934,-0.999727,0.009185,0.150200,-0.018492,-8.327847,4.301709,-41.792690,,,,,,,
1505840936.475827,0.020429,0.002633,2.621655,0.003926,0.022733,0.021802,0.020428,-0.002633,-0.999788,-0.020855,0.157448,0.014024,-8.359556,4.305396,-41.785980,,,,,,,
1505840936.495798,0.021180,0.002548,2.622008,-0.008878,0.051442,0.015472,0.021178,-0.002548,-0.999772,-0.009520,0.158951,0.009950,-8.390075,4.570257,-41.751724,,,,,,,
1505840936.515759,0.022380,-0.003617,2.622236,-0.004458,0.018527,0.008874,0.022378,0.003617,-0.999743,0.013098,0.160186,0.002154,-8.318240,4.833375,-41.736462,,,,,,,
1505840936.535736,0.022327,-0.003637,2.622391,0.003118,-0.008026,0.006617,0.022325,0.003637,-0.999744,0.001616,0.173075,0.007969,-8.313110,4.837016,-41.737061,,,,,,,
1505840936.555707,0.022405,-0.010548,2.622519,-0.001210,-0.009107,0.008725,0.022401,0.010548,-0.999693,0.005339,0.177502,0.001357,-8.317012,4.837622,-41.736214,,,,,,,
1505840936.575665,0.022309,-0.010536,2.622689,-0.001194,-0.004845,0.006609,0.022306,0.010536,-0.999696,0.002123,0.182716,-0.007918,-8.314939,5.125638,-41.702232,,,,,,,
1505840936.595644,0.022234,-0.017631,2.622805,-0.000144,-0.006964,0.005530,0.022229,0.017630,-0.999597,0.002551,0.185022,-0.005316,-8.318810,5.126266,-41.701385,,,,,,,
1505840936.615596,0.022086,-0.017653,2.622863,-0.001164,-0.003757,0.001260,0.022080,0.017652,-0.999600,0.001159,0.180682,-0.008548,-8.324379,5.422725,-41.662762,,,,,,,
1505840936.635586,0.022127,-0.017655,2.622835,-0.000069,0.005834,-0.002960,0.022122,0.017654,-0.999599,0.000492,0.163254,-0.000553,-8.324656,5.422966,-41.662674,,,,,,,
1505840936.655548,0.022287,-0.023158,2.622733,-0.000035,0.010077,-0.007259,0.022279,0.023156,-0.999484,0.000090,0.126716,-0.007993,-8.321185,5.650522,-41.633118,,,,,,,
1505840936.675502,0.022548,-0.023194,2.622547,-0.001086,0.014337,-0.009382,0.022540,0.023192,-0.999477,-0.000369,0.095719,-0.003071,-8.310752,5.649973,-41.635273,,,,,,,
1505840936.695493,0.022877,-0.023232,2.622307,-0.001036,0.016483,-0.013652,0.022868,0.023230,-0.999469,-0.002910,0.087061,-0.007383,-8.298518,5.649486,-41.637783,,,,,,,
1505840936.715454,0.023127,-0.026422,2.622055,-0.002118,0.006902,-0.011575,0.023117,0.026419,-0.999384,0.003906,0.079813,0.001901,-8.291256,5.779322,-41.621407,,,,,,,
1505840936.735408,0.023083,-0.026432,2.621812,0.001155,-0.012223,-0.012742,0.023073,0.026429,-0.999384,-0.007113,0.070251,0.011332,-8.286695,5.777922,-41.622505,,,,,,,
1505840936.755404,0.023117,-0.026438,2.621468,0.001205,0.003760,-0.020142,0.023107,0.026435,-0.999383,-0.010503,0.064828,-0.008490,-8.290002,5.775303,-41.622211,,,,,,,
1505840936.775360,0.023188,-0.026460,2.621093,-0.003055,-0.007954,-0.018096,0.023177,0.026457,-0.999381,0.007386,0.065492,-0.007394,-8.286246,5.772601,-41.623333,,,,,,,
1505840936.795344,0.022760,-0.026481,2.620763,0.002326,-0.037726,-0.015031,0.022750,0.026478,-0.999390,-0.001494,0.075665,-0.008102,-8.299706,5.770564,-41.620937,,,,,,,
1505840936.815313,0.022316,-0.026347,2.620403,0.006562,-0.013250,-0.018071,0.022306,0.026344,-0.999404,-0.011000,0.073067,-0.005341,-8.324839,5.762692,-41.617004,,,,,,,
1505840936.835268,0.022614,-0.026284,2.619990,0.002204,0.035666,-0.022086,0.022604,0.026281,-0.999399,-0.025717,0.074137,0.000513,-8.330531,5.759083,-41.616367,,,,,,,
1505840936.855243,0.024262,-0.034473,2.619586,0.003311,0.018672,-0.024323,0.024245,0.034466,-0.999112,0.020112,0.061923,0.015362,-8.292063,5.981894,-41.592613,,,,,,,
1505840936.875221,0.024991,-0.037923,2.619028,0.007798,-0.022737,-0.033113,0.024970,0.037914,-0.998969,-0.000907,0.044376,-0.032037,-8.215695,6.162456,-41.581406,,,,,,,
1505840936.895190,0.024724,-0.039213,2.618360,-0.001853,-0.022771,-0.029958,0.024702,0.039203,-0.998926,-0.000151,0.035764,0.012888,-8.228938,6.223919,-41.569630,,,,,,,
1505840936.915138,0.023116,-0.043612,2.617772,0.003334,0.000600,-0.025507,0.023092,0.043599,-0.998782,-0.021367,0.039348,-0.026639,-8.276034,6.398841,-41.533707,,,,,,,
1505840936.935114,0.023528,-0.045412,2.617360,0.004361,-0.013242,-0.020229,0.023502,0.045396,-0.998693,0.000012,0.033110,0.033071,-8.291967,6.473582,-41.518944,,,,,,,
1505840936.955088,0.023409,-0.045367,2.616928,0.006615,-0.034480,-0.024627,0.023382,0.045351,-0.998697,0.000131,0.033155,0.033075,-8.291967,6.473582,-41.518944,,,,,,,
1505840936.975050,0.022808,-0.047323,2.616334,0.007639,0.009144,-0.031856,0.022780,0.047305,-0.998621,-0.017196,0.034421,-0.009848,-8.314772,6.558537,-41.501045,,,,,,,
1505840936.995041,0.023347,-0.047336,2.615677,0.002192,0.032507,-0.028534,0.023318,0.047318,-0.998608,0.014127,0.051696,-0.013752,-8.323321,6.587508,-41.494743,,,,,,,
1505840937.015002,0.022850,-0.047078,2.615117,0.002463,-0.048281,-0.031162,0.022823,0.047061,-0.998631,0.044987,0.028318,-0.067394,-8.313720,6.575252,-41.498611,,,,,,,
1505840937.034968,0.022704,-0.048123,2.614627,0.015084,-0.003618,-0.027604,0.022676,0.048104,-0.998585,-0.000535,0.028876,-0.004375,-8.340103,6.611929,-41.487492,,,,,,,
1505840937.054950,0.022774,-0.047940,2.614178,0.014903,0.018667,-0.018903,0.022746,0.047922,-0.998592,0.002614,0.036169,0.046093,-8.345326,6.602261,-41.487976,,,,,,,
1505840937.074918,0.021990,-0.048231,2.613680,-0.015907,0.008006,-0.026649,0.021962,0.048212,-0.998596,-0.019750,0.010748,0.002456,-8.376753,6.602855,-41.481552,,,,,,,
1505840937.094874,0.022578,-0.048461,2.613096,0.000167,-0.001515,-0.029824,0.022550,0.048442,-0.998571,0.040835,0.017674,0.062216,-8.352775,6.608703,-41.485458,,,,,,,
1505840937.114858,0.021654,-0.048578,2.612513,0.007756,-0.041900,-0.030022,0.021627,0.048559,-0.998586,-0.001089,0.005824,-0.036906,-8.354073,6.607425,-41.485397,,,,,,,
1505840937.134828,0.021476,-0.048586,2.611991,0.007510,0.016547,-0.024316,0.021449,0.048567,-0.998590,-0.008266,0.014085,-0.040137,-8.409001,6.604846,-41.474709,,,,,,,
1505840937.154798,0.021424,-0.048087,2.611390,0.002586,-0.072713,-0.035592,0.021398,0.048068,-0.998615,0.018092,-0.004978,-0.006817,-8.404862,6.602338,-41.475948,,,,,,,
1505840937.174767,0.021140,-0.047926,2.610736,0.026877,-0.004639,-0.031824,0.021114,0.047907,-0.998629,0.006581,-0.011637,-0.023497,-8.409717,6.576139,-41.479126,,,,,,,
1505840937.194730,0.020667,-0.047675,2.609934,0.013992,0.046389,-0.036948,0.020642,0.047657,-0.998650,-0.009961,-0.004109,-0.004233,-8.443733,6.559452,-41.474857,,,,,,,
1505840937.214707,0.020225,-0.047427,2.609412,0.025848,-0.054651,-0.023564,0.020201,0.047409,-0.998671,0.029207,-0.002762,0.008589,-8.456308,6.536859,-41.475864,,,,,,,
1505840937.234677,0.017702,-0.046865,2.608608,0.014151,-0.024870,-0.033096,0.017682,0.046847,-0.998746,-0.044964,-0.006351,-0.039356,-8.468390,6.530513,-41.474396,,,,,,,
1505840937.254646,0.018244,-0.046975,2.607899,-0.024490,0.048404,-0.031814,0.018223,0.046958,-0.998731,-0.019535,0.009576,0.074155,-8.571871,6.491514,-41.459255,,,,,,,
1505840937.274616,0.018827,-0.046111,2.607285,-0.002731,-0.071663,-0.036691,0.018806,0.046095,-0.998760,0.022988,-0.020308,-0.109532,-8.548091,6.490691,-41.464294,,,,,,,
1505840937.294558,0.018621,-0.046210,2.606454,0.010947,0.005988,-0.039354,0.018600,0.046194,-0.998759,-0.014298,0.002268,0.036021,-8.547308,6.457748,-41.469601,,,,,,,
1505840937.314554,0.017937,-0.045239,2.605597,0.003405,0.017648,-0.036117,0.017918,0.045224,-0.998816,-0.024220,-0.018307,-0.050851,-8.545226,6.440093,-41.472775,,,,,,,
1505840937.334525,0.018725,-0.045415,2.604922,-0.009428,0.032511,-0.037175,0.018705,0.045399,-0.998794,0.033007,0.000652,0.037032,-8.556233,6.405249,-41.475903,,,,,,,
1505840937.354470,0.018797,-0.045094,2.603953,0.032456,0.015665,-0.054162,0.018776,0.045079,-0.998807,0.007911,-0.030446,-0.122760,-8.553579,6.392396,-41.478432,,,,,,,
1505840937.374464,0.019305,-0.043907,2.603267,0.016059,0.017620,-0.024260,0.019285,0.043893,-0.998850,0.016222,-0.005838,0.104151,-8.534430,6.330271,-41.491901,,,,,,,
1505840937.394433,0.019416,-0.043624,2.602464,-0.003012,0.048493,-0.041323,0.019397,0.043610,-0.998860,-0.013644,-0.024720,-0.039134,-8.541618,6.309855,-41.493534,,,,,,,
1505840937.414377,0.019597,-0.042205,2.601779,0.010858,0.008076,-0.031845,0.019578,0.042192,-0.998918,-0.002901,-0.033922,0.070420,-8.522251,6.301701,-41.498753,,,,,,,
1505840937.434373,0.018474,-0.042306,2.601039,0.004813,-0.096109,-0.035723,0.018457,0.042293,-0.998935,-0.012750,-0.028805,-0.086026,-8.536238,6.243757,-41.504639,,,,,,,
1505840937.454344,0.018512,-0.042649,2.600394,-0.019061,0.028221,-0.032974,0.018494,0.042636,-0.998919,-0.002548,-0.016086,-0.019650,-8.584395,6.246573,-41.494278,,,,,,,
1505840937.474308,0.018916,-0.040762,2.599812,0.014036,0.018717,-0.031761,0.018899,0.040751,-0.998991,-0.061898,-0.045130,-0.054476,-8.559457,6.172041,-41.510578,,,,,,,
1505840937.494281,0.018480,-0.041295,2.598547,-0.077942,-0.119525,-0.065274,0.018464,0.041283,-0.998977,0.061019,-0.110237,-0.111695,-8.551549,6.159809,-41.514027,,,,,,,
1505840937.514238,0.018137,-0.041427,2.597191,0.017930,-0.042757,-0.070664,0.018120,0.041415,-0.998978,0.020210,-0.097812,-0.034470,-8.598235,6.175423,-41.502064,,,,,,,
1505840937.534223,0.017634,-0.041766,2.595825,-0.013130,0.011416,-0.073736,0.017617,0.041754,-0.998973,-0.017114,-0.045691,0.106791,-8.636351,6.170372,-41.494900,,,,,,,
1505840937.554189,0.017271,-0.041883,2.594255,0.003069,-0.049145,-0.075075,0.017255,0.041871,-0.998974,0.004077,-0.053101,0.092282,-8.635628,6.168598,-41.495316,,,,,,,
1505840937.574161,0.016270,-0.042048,2.593072,-0.000508,-0.022680,-0.052446,0.016255,0.042036,-0.998984,-0.026524,-0.035001,0.101187,-8.698709,6.157944,-41.483719,,,,,,,
1505840937.594129,0.016039,-0.039928,2.591925,0.014269,0.062427,-0.058271,0.016025,0.039917,-0.999074,-0.031101,-0.045898,-0.061472,-8.705796,6.150712,-41.483303,,,,,,,
1505840937.614099,0.016409,-0.039952,2.590877,-0.007971,-0.043987,-0.047265,0.016395,0.039941,-0.999067,0.028389,-0.064493,-0.021501,-8.707755,6.052022,-41.497406,,,,,,,
1505840937.634043,0.015397,-0.039966,2.589917,-0.000516,-0.016306,-0.052409,0.015384,0.039955,-0.999083,-0.027973,-0.070046,-0.003709,-8.749931,6.042293,-41.489952,,,,,,,
1505840937.654034,0.014512,-0.038057,2.589077,0.000026,0.067540,-0.028370,0.014501,0.038048,-0.999171,-0.029759,-0.044167,0.086192,-8.808278,5.954534,-41.490295,,,,,,,
1505840937.674008,0.014809,-0.038227,2.588361,-0.008088,-0.030240,-0.038647,0.014798,0.038218,-0.999160,0.045322,-0.065241,-0.032594,-8.783087,5.953444,-41.495792,,,,,,,
1505840937.693959,0.014934,-0.038547,2.587409,-0.002736,0.005963,-0.048036,0.014922,0.038537,-0.999146,0.010698,-0.055871,-0.060241,-8.784748,5.959408,-41.494583,,,,,,,
1505840937.713935,0.014740,-0.034868,2.586612,-0.025302,0.010109,-0.035294,0.014730,0.034861,-0.999284,-0.017431,-0.074763,0.061600,-8.797205,5.794512,-41.515293,,,,,,,
1505840937.733916,0.014866,-0.034751,2.585742,0.012328,-0.010999,-0.052332,0.014856,0.034744,-0.999286,-0.002573,-0.054244,0.084201,-8.794417,5.798761,-41.515289,,,,,,,
1505840937.753886,0.015432,-0.034953,2.584900,-0.018016,0.061144,-0.032801,0.015422,0.034946,-0.999270,-0.038738,-0.080891,0.154696,-8.786543,5.783326,-41.519115,,,,,,,
1505840937.773847,0.015478,-0.034814,2.584185,0.018639,-0.061039,-0.034389,0.015468,0.034807,-0.999274,0.075810,-0.086611,-0.099145,-8.762363,5.778504,-41.524891,,,,,,,
1505840937.793826,0.015125,-0.034844,2.583453,-0.004910,-0.006836,-0.040629,0.015115,0.034837,-0.999279,-0.019860,-0.096223,-0.071186,-8.790481,5.770511,-41.520061,,,,,,,
1505840937.813797,0.015116,-0.031695,2.582749,-0.022977,-0.080285,-0.028328,0.015108,0.031690,-0.999384,0.052229,-0.073850,-0.094321,-8.779496,5.626993,-41.542076,,,,,,,
1505840937.833766,0.014694,-0.031692,2.582113,0.014172,0.020828,-0.036064,0.014686,0.031687,-0.999390,-0.057487,-0.064539,0.124985,-8.820539,5.628912,-41.533119,,,,,,,
1505840937.853729,0.014528,-0.031695,2.581334,-0.016560,-0.029181,-0.040833,0.014520,0.031690,-0.999392,0.020118,-0.092237,-0.089856,-8.814930,5.615559,-41.536121,,,,,,,
1505840937.873707,0.014261,-0.031820,2.580571,0.013220,-0.007869,-0.038385,0.014253,0.031815,-0.999392,0.004332,-0.060608,0.051852,-8.839162,5.619589,-41.530426,,,,,,,
1505840937.893659,0.013587,-0.028324,2.579944,-0.013585,0.004792,-0.029901,0.013581,0.028320,-0.999507,-0.010285,-0.076859,-0.004598,-8.848543,5.609429,-41.529804,,,,,,,
1505840937.913644,0.013337,-0.028363,2.579143,0.005949,-0.044008,-0.044001,0.013332,0.028359,-0.999509,0.030659,-0.089349,-0.106479,-8.873163,5.464375,-41.543880,,,,,,,
1505840937.933614,0.011335,-0.024673,2.578351,-0.028452,0.002642,-0.033216,0.011331,0.024671,-0.999631,-0.031824,-0.085660,0.045805,-8.909867,5.461364,-41.536423,,,,,,,
1505840937.953583,0.011829,-0.024740,2.577988,0.007456,0.039833,-0.013499,0.011825,0.024737,-0.999624,0.000168,-0.091525,0.010565,-8.968745,5.301429,-41.544472,,,,,,,
1505840937.973554,0.012005,-0.024880,2.577608,-0.006217,0.002626,-0.020231,0.012001,0.024877,-0.999618,0.015022,-0.095952,0.038361,-8.947759,5.298073,-41.549427,,,,,,,
1505840937.993525,0.012174,-0.020770,2.577132,0.006673,0.013318,-0.027587,0.012171,0.020768,-0.999710,-0.009043,-0.094270,-0.006561,-8.945983,5.131940,-41.570656,,,,,,,
1505840938.013473,0.012747,-0.020655,2.576597,0.000067,0.034517,-0.016789,0.012744,0.020653,-0.999705,-0.001361,-0.127602,-0.063893,-8.932183,5.118159,-41.575321,,,,,,,
1505840938.033462,0.014100,-0.015808,2.576446,-0.001881,-0.028216,-0.015037,0.014098,0.015807,-0.999776,0.041612,-0.114989,0.052647,-8.856891,4.913019,-41.616158,,,,,,,
1505840938.053434,0.013637,-0.015845,2.576040,0.001385,-0.021801,-0.021405,0.013635,0.015844,-0.999781,-0.007699,-0.126898,-0.089101,-8.880925,4.911544,-41.611206,,,,,,,
1505840938.073377,0.012812,-0.009715,2.575687,0.007724,-0.009055,-0.017006,0.012811,0.009715,-0.999871,-0.011438,-0.152110,0.002419,-8.919132,4.654959,-41.632523,,,,,,,
1505840938.093372,0.012898,-0.009795,2.575311,-0.013704,0.016413,-0.015910,0.012897,0.009795,-0.999869,-0.012058,-0.158156,-0.010416,-8.924095,4.649175,-41.632107,,,,,,,
1505840938.113342,0.013319,-0.002400,2.575221,-0.009500,0.013191,-0.007336,0.013319,0.002400,-0.999908,0.000231,-0.169468,0.016129,-8.914205,4.653142,-41.633785,,,,,,,
1505840938.133310,0.013742,-0.002485,2.574975,-0.000923,0.013223,-0.010498,0.013741,0.002485,-0.999902,0.007682,-0.181135,-0.006201,-8.887796,4.345881,-41.672615,,,,,,,
1505840938.153280,0.013896,0.005210,2.574951,-0.000974,-0.002775,0.000115,0.013895,-0.005210,-0.999890,0.003897,-0.180551,-0.001819,-8.883458,4.346194,-41.673512,,,,,,,
1505840938.173233,0.013794,0.005297,2.574840,0.000196,0.000457,-0.008427,0.013793,-0.005297,-0.999891,-0.005981,-0.185346,-0.010516,-8.883155,4.021271,-41.706181,,,,,,,
1505840938.193201,0.014021,0.005240,2.574733,-0.003085,0.013193,-0.005156,0.014020,-0.005240,-0.999888,-0.002759,-0.181742,0.006602,-8.876868,4.021819,-41.707470,,,,,,,
1505840938.213165,0.014391,0.012726,2.574617,-0.004082,0.003623,-0.005221,0.014389,-0.012726,-0.999815,0.005585,-0.177765,-0.015581,-8.871583,4.022647,-41.708515,,,,,,,
1505840938.233149,0.014437,0.012633,2.574556,-0.004120,0.006802,-0.003060,0.014435,-0.012632,-0.999816,-0.000596,-0.173159,-0.000367,-8.858564,3.712329,-41.740044,,,,,,,
1505840938.253116,0.014457,0.012603,2.574495,0.000143,0.003616,-0.001982,0.014455,-0.012603,-0.999816,0.004145,-0.166367,0.005508,-8.857203,3.713052,-41.740265,,,,,,,
1505840938.273071,0.014622,0.019785,2.574499,0.000179,-0.004899,0.000108,0.014618,-0.019783,-0.999697,0.003341,-0.159965,0.005313,-8.857206,3.713682,-41.740211,,,,,,,
1505840938.293055,0.014835,0.030773,2.574514,0.000195,-0.004914,0.003321,0.014828,-0.030768,-0.999417,0.004520,-0.110941,-0.009327,-8.845652,3.164656,-41.787868,,,,,,,
1505840938.313039,0.014915,0.035433,2.574588,0.003412,-0.011296,0.005443,0.014905,-0.035425,-0.999261,0.005237,-0.112738,-0.004462,-8.842251,2.956858,-41.803806,,,,,,,
1505840938.333008,0.014892,0.039488,2.574669,0.004478,-0.003851,0.005494,0.014880,-0.039478,-0.999110,0.002789,-0.101498,-0.013860,-8.838979,2.763510,-41.817730,,,,,,,
1505840938.352961,0.015252,0.050374,2.574816,0.000206,-0.001753,0.009765,0.015232,-0.050353,-0.998615,0.004604,-0.092530,-0.009258,-8.827526,2.282165,-41.849174,,,,,,,
1505840938.372947,0.015266,0.057416,2.575020,0.000191,-0.002836,0.014042,0.015240,-0.057384,-0.998236,0.001773,-0.098087,-0.000757,-8.821091,1.992477,-41.865318,,,,,,,
1505840938.392900,0.015167,0.060673,2.575276,-0.001904,-0.004962,0.012946,0.015138,-0.060636,-0.998045,0.001769,-0.098208,-0.007509,-8.821635,1.851503,-41.871677,,,,,,,
1505840938.412879,0.015269,0.066529,2.575510,0.001382,-0.027285,0.013901,0.015235,-0.066480,-0.997671,0.001764,-0.091540,-0.010233,-8.821045,1.592461,-41.882454,,,,,,,
1505840938.432856,0.014375,0.072001,2.575893,0.001270,-0.017759,0.022527,0.014337,-0.071939,-0.997306,-0.008401,-0.084784,0.004951,-8.836060,1.361933,-41.887421,,,,,,,
1505840938.452809,0.013802,0.074409,2.576308,0.002390,-0.002844,0.016199,0.013764,-0.074340,-0.997138,-0.007202,-0.074784,-0.002557,-8.854013,1.249800,-41.887123,,,,,,,
1505840938.472773,0.013830,0.080186,2.576679,0.005540,-0.008189,0.023682,0.013785,-0.080100,-0.996692,0.004312,-0.064599,-0.000211,-8.875585,0.994707,-41.889397,,,,,,,
1505840938.492764,0.013025,0.082741,2.577364,-0.005298,0.024712,0.030245,0.012980,-0.082647,-0.996494,-0.009776,-0.040721,-0.001232,-8.894670,0.860823,-41.888309,,,,,,,
1505840938.512726,0.013629,0.084051,2.577923,0.006491,0.004533,0.031264,0.013581,-0.083952,-0.996377,0.013702,-0.047029,-0.020621,-8.894670,0.860823,-41.888309,,,,,,,
1505840938.532681,0.013775,0.087465,2.578528,0.001141,0.006639,0.033386,0.013722,-0.087354,-0.996083,-0.004140,-0.038028,0.046422,-8.862651,0.676767,-41.898472,,,,,,,
1505840938.552674,0.013847,0.087992,2.579001,-0.001790,-0.034777,0.022407,0.013793,-0.087878,-0.996036,0.019563,-0.024686,-0.069608,-8.868688,0.632431,-41.897892,,,,,,,
1505840938.572629,0.013213,0.087765,2.579571,-0.009392,-0.032711,0.032013,0.013162,-0.087652,-0.996064,0.007499,-0.014231,-0.058852,-8.869601,0.614514,-41.897964,,,,,,,
1505840938.592597,0.012087,0.088450,2.580277,0.017151,0.010926,0.032438,0.012039,-0.088335,-0.996018,-0.008850,-0.012511,-0.033218,-8.931240,0.606771,-41.884979,,,,,,,
1505840938.612581,0.011939,0.088460,2.580870,-0.004086,-0.017817,0.031067,0.011892,-0.088345,-0.996019,0.013285,0.001736,0.001726,-8.928865,0.607526,-41.885475,,,,,,,
1505840938.632552,0.011807,0.088406,2.581460,0.028998,-0.017745,0.030194,0.011761,-0.088291,-0.996025,0.005726,0.018299,0.003288,-8.935896,0.610325,-41.883934,,,,,,,
1505840938.652522,0.011743,0.088512,2.582181,0.001003,0.030000,0.038882,0.011697,-0.088396,-0.996017,-0.004189,0.030718,-0.041901,-8.941442,0.618405,-41.882633,,,,,,,
1505840938.672492,0.012079,0.087715,2.582940,0.009627,-0.012524,0.038654,0.012033,-0.087603,-0.996083,0.002707,0.027102,0.008671,-8.915195,0.660625,-41.887585,,,,,,,
1505840938.692461,0.011892,0.087719,2.583672,-0.000072,0.015093,0.039833,0.011846,-0.087607,-0.996085,-0.014425,0.033484,-0.034265,-8.922632,0.661488,-41.885986,,,,,,,
1505840938.712432,0.012186,0.087022,2.584680,0.001920,0.018241,0.049503,0.012140,-0.086913,-0.996142,0.005759,0.053603,-0.062101,-8.909659,0.703808,-41.888062,,,,,,,
1505840938.732401,0.011928,0.086856,2.585326,-0.014808,-0.006149,0.028908,0.011882,-0.086747,-0.996159,-0.003612,0.058488,0.063741,-8.912515,0.714220,-41.887276,,,,,,,
1505840938.752370,0.012690,0.087497,2.586080,0.050968,0.074735,0.039427,0.012641,-0.087385,-0.996094,-0.047828,0.062071,0.166749,-8.912515,0.714220,-41.887276,,,,,,,
1505840938.772340,0.014372,0.085488,2.586887,-0.023659,0.010758,0.048231,0.014319,-0.085384,-0.996245,0.033059,0.065364,0.025573,-8.865591,0.694230,-41.897568,,,,,,,
1505840938.792295,0.014103,0.085621,2.587612,0.010790,-0.002898,0.028006,0.014051,-0.085517,-0.996238,-0.007367,0.024283,0.022437,-8.812119,0.792656,-41.907097,,,,,,,
1505840938.812279,0.013898,0.085515,2.588317,0.005437,-0.019945,0.033226,0.013847,-0.085410,-0.996250,0.009255,0.049979,-0.006665,-8.812119,0.792656,-41.907097,,,,,,,
1505840938.832248,0.014180,0.083909,2.588972,-0.006568,0.019322,0.044098,0.014130,-0.083811,-0.996382,-0.030273,0.069574,0.076795,-8.790732,0.867757,-41.910107,,,,,,,
1505840938.852218,0.014487,0.084094,2.589791,0.022356,0.013036,0.036736,0.014436,-0.083995,-0.996362,0.029388,0.065227,-0.072868,-8.803444,0.875892,-41.907269,,,,,,,
1505840938.872189,0.013923,0.084122,2.590385,0.006530,-0.041211,0.035244,0.013873,-0.084023,-0.996367,0.015378,0.094780,0.029342,-8.792607,0.876872,-41.909519,,,,,,,
1505840938.892159,0.013117,0.081897,2.591187,0.004298,0.009837,0.030184,0.013073,-0.081806,-0.996563,-0.014980,0.077961,-0.070851,-8.812447,0.877668,-41.905334,,,,,,,
1505840938.912102,0.012775,0.081923,2.591799,-0.003164,-0.006140,0.033256,0.012732,-0.081832,-0.996565,-0.001166,0.079146,0.152800,-8.843862,0.981672,-41.896412,,,,,,,
1505840938.932096,0.012333,0.082194,2.592468,0.006528,-0.045467,0.035219,0.012291,-0.082102,-0.996548,0.026283,0.073938,0.021908,-8.849236,0.985403,-41.895191,,,,,,,
1505840938.952067,0.013200,0.079955,2.593164,-0.001296,0.058696,0.037942,0.013158,-0.079870,-0.996718,0.006007,0.070272,0.000045,-8.847673,0.980930,-41.895622,,,,,,,
1505840938.972036,0.012346,0.079806,2.594005,-0.000104,-0.039171,0.050210,0.012307,-0.079722,-0.996741,0.012947,0.101496,-0.030740,-8.850226,1.092137,-41.892330,,,,,,,
1505840938.992006,0.010326,0.077199,2.595022,-0.000159,0.020406,0.039863,0.010295,-0.077122,-0.996969,-0.047419,0.083912,-0.007884,-8.875769,1.093484,-41.886894,,,,,,,
1505840939.011976,0.011292,0.077426,2.595769,0.016945,0.018324,0.037811,0.011258,-0.077349,-0.996940,0.052524,0.067355,0.013771,-8.898570,1.212153,-41.878788,,,,,,,
1505840939.031944,0.009604,0.074605,2.596485,0.011831,-0.023115,0.028965,0.009577,-0.074535,-0.997172,-0.031748,0.087261,0.002910,-8.902226,1.211933,-41.878017,,,,,,,
1505840939.051914,0.010043,0.074764,2.597074,-0.014121,0.040566,0.040974,0.010015,-0.074694,-0.997156,-0.024587,0.066958,-0.037344,-8.963357,1.331044,-41.861359,,,,,,,
1505840939.071885,0.010991,0.075320,2.598072,0.061410,0.084275,0.048115,0.010960,-0.075249,-0.997105,-0.048802,0.064659,0.136356,-8.914794,1.330482,-41.871746,,,,,,,
1505840939.091838,0.011281,0.075044,2.598657,-0.031812,-0.046582,0.026420,0.011249,-0.074974,-0.997122,0.074704,0.121482,-0.115473,-8.872566,1.328953,-41.880764,,,,,,,
1505840939.111824,0.011031,0.075206,2.599295,0.008654,-0.012471,0.024726,0.011000,-0.075135,-0.997113,-0.001905,0.069154,0.262188,-8.885414,1.337799,-41.877758,,,,,,,
1505840939.131766,0.010642,0.073689,2.599944,0.007216,0.065084,0.034826,0.010613,-0.073623,-0.997230,-0.025811,0.051330,0.085700,-8.874790,1.329273,-41.880280,,,,,,,
1505840939.151746,0.011847,0.073554,2.600442,-0.000916,0.010933,0.016244,0.011815,-0.073488,-0.997226,0.084910,0.082353,-0.164624,-8.864143,1.412479,-41.879810,,,,,,,
1505840939.171721,0.011184,0.073313,2.600871,-0.025420,-0.038060,0.024370,0.011154,-0.073247,-0.997251,0.046036,0.054937,0.063764,-8.854902,1.416186,-41.881641,,,,,,,
1505840939.191678,0.010441,0.073242,2.601438,-0.012834,0.001266,0.032179,0.010413,-0.073176,-0.997265,-0.052985,0.069316,0.090694,-8.905325,1.433871,-41.870346,,,,,,,
1505840939.211652,0.009878,0.069561,2.602096,0.000034,-0.004006,0.026872,0.009854,-0.069504,-0.997533,0.059924,0.084122,-0.059901,-8.884985,1.449376,-41.874134,,,,,,,
1505840939.231640,0.009037,0.069329,2.602657,0.007524,-0.011433,0.026872,0.009015,-0.069273,-0.997557,0.062427,0.091826,-0.059694,-8.935026,1.602162,-41.857914,,,,,,,
1505840939.251611,0.008481,0.069501,2.603106,-0.008323,-0.020988,0.017081,0.008460,-0.069445,-0.997550,-0.003562,0.096682,-0.068643,-8.975201,1.607290,-41.849121,,,,,,,
1505840939.271558,0.008827,0.065485,2.603431,-0.012732,0.004507,0.020421,0.008808,-0.065438,-0.997818,-0.008823,0.097619,0.115112,-8.981959,1.618117,-41.847256,,,,,,,
1505840939.291551,0.009050,0.065515,2.603911,0.011758,0.010924,0.022748,0.009031,-0.065469,-0.997814,-0.008237,0.109277,-0.000447,-8.957239,1.785805,-41.845734,,,,,,,
1505840939.311521,0.009684,0.065524,2.604368,-0.009763,0.076801,0.021945,0.009663,-0.065477,-0.997807,0.005962,0.108492,0.051335,-8.939686,1.784618,-41.849541,,,,,,,
1505840939.331464,0.011324,0.060956,2.604680,0.012979,-0.059238,0.024472,0.011303,-0.060918,-0.998079,0.053959,0.093434,0.047304,-8.922076,1.790765,-41.853035,,,,,,,
1505840939.351459,0.010927,0.060685,2.605105,-0.001059,0.010916,0.021599,0.010906,-0.060648,-0.998100,-0.009091,0.113779,-0.037759,-8.870493,1.990041,-41.855000,,,,,,,
1505840939.371429,0.011522,0.060290,2.605520,-0.021398,0.071515,0.013275,0.011501,-0.060253,-0.998117,-0.020626,0.123257,-0.043418,-8.856463,2.011892,-41.856926,,,,,,,
1505840939.391400,0.010899,0.055409,2.605762,-0.019934,-0.056047,0.009302,0.010882,-0.055380,-0.998406,-0.007876,0.113684,-0.018424,-8.840392,2.022156,-41.859829,,,,,,,
1505840939.411368,0.010748,0.055329,2.606181,-0.020232,-0.027418,0.025537,0.010732,-0.055301,-0.998412,-0.007726,0.113604,-0.018418,-8.862467,2.224171,-41.844910,,,,,,,
1505840939.431338,0.011553,0.055278,2.606692,-0.001352,0.056583,0.031511,0.011535,-0.055250,-0.998406,-0.008758,0.103422,0.047097,-8.868819,2.234791,-41.842999,,,,,,,
1505840939.451298,0.013765,0.050303,2.607024,0.002157,0.001375,0.018347,0.013747,-0.050282,-0.998640,0.036195,0.109547,-0.040636,-8.803607,2.253323,-41.855774,,,,,,,
1505840939.471264,0.013164,0.050385,2.607290,-0.009445,-0.024143,0.013840,0.013147,-0.050364,-0.998644,0.004523,0.107691,-0.055189,-8.750070,2.446321,-41.856167,,,,,,,
1505840939.491248,0.014065,0.050473,2.607741,0.008441,0.054560,0.015492,0.014047,-0.050452,-0.998628,-0.017648,0.108481,0.047319,-8.736716,2.448499,-41.858829,,,,,,,
1505840939.511213,0.015794,0.045512,2.607605,0.009902,-0.001684,-0.004116,0.015777,-0.045497,-0.998840,0.035462,0.113993,-0.035355,-8.714976,2.449976,-41.863274,,,,,,,
1505840939.531186,0.015249,0.045407,2.607830,-0.022310,-0.017787,0.014872,0.015232,-0.045392,-0.998853,0.039379,0.101727,-0.032366,-8.655005,2.650119,-41.863522,,,,,,,
1505840939.551157,0.015389,0.045178,2.608145,-0.001050,0.007771,0.015153,0.015373,-0.045163,-0.998861,-0.008049,0.120968,-0.020563,-8.669886,2.671242,-41.859104,,,,,,,
1505840939.571124,0.015783,0.040235,2.608342,0.004366,-0.000692,0.008708,0.015770,-0.040225,-0.999066,0.021645,0.103533,0.040036,-8.650856,2.880666,-41.849148,,,,,,,
1505840939.591094,0.015657,0.040171,2.608494,-0.004179,0.012059,0.006592,0.015644,-0.040160,-0.999071,-0.005192,0.127685,-0.050139,-8.654058,2.881172,-41.848450,,,,,,,
1505840939.611060,0.016261,0.034686,2.608639,-0.003160,-0.015613,0.013927,0.016250,-0.034679,-0.999266,0.023316,0.116115,0.030699,-8.627320,3.106772,-41.837833,,,,,,,
1505840939.631034,0.015562,0.034655,2.609070,-0.009625,-0.027356,0.021314,0.015552,-0.034648,-0.999279,-0.000842,0.117565,-0.038228,-8.651700,3.116655,-41.832062,,,,,,,
1505840939.651004,0.014791,0.028929,2.609356,-0.005461,0.038604,0.012097,0.014784,-0.028925,-0.999472,-0.028487,0.132395,-0.040292,-8.658528,3.123227,-41.830154,,,,,,,
1505840939.670974,0.014711,0.028933,2.609748,-0.001090,-0.033721,0.020255,0.014705,-0.028929,-0.999473,0.004354,0.137083,-0.001976,-8.683135,3.363299,-41.806435,,,,,,,
1505840939.690943,0.014369,0.021919,2.609985,-0.009557,-0.002853,0.005382,0.014365,-0.021918,-0.999657,0.002466,0.162253,-0.034187,-8.702937,3.656578,-41.777687,,,,,,,
1505840939.710912,0.014394,0.021852,2.610111,-0.005371,0.005640,0.009742,0.014390,-0.021851,-0.999658,0.003341,0.156616,0.016671,-8.702937,3.656578,-41.777687,,,,,,,
1505840939.730881,0.014912,0.014780,2.610329,-0.009700,0.013075,0.009761,0.014910,-0.014780,-0.999780,0.007795,0.168588,-0.021247,-8.698415,3.664192,-41.777962,,,,,,,
1505840939.750852,0.014820,0.014681,2.610540,-0.004292,-0.011367,0.009646,0.014818,-0.014680,-0.999782,0.015654,0.203523,0.008312,-8.680262,3.964020,-41.754356,,,,,,,
1505840939.770821,0.014661,0.006129,2.610661,-0.003204,-0.015596,0.005343,0.014660,-0.006129,-0.999874,0.005481,0.205608,-0.008427,-8.680262,3.964020,-41.754356,,,,,,,
1505840939.790766,0.014476,0.006099,2.610801,-0.000063,-0.004969,0.007567,0.014476,-0.006099,-0.999877,0.009191,0.202891,0.014037,-8.690814,4.322520,-41.716572,,,,,,,
1505840939.810760,0.014690,-0.002129,2.610893,-0.002195,-0.007083,0.004329,0.014689,0.002129,-0.999890,0.009572,0.204750,0.007367,-8.685966,4.667017,-41.680450,,,,,,,
1505840939.830719,0.014517,-0.002118,2.610942,0.002122,-0.004928,0.000084,0.014516,0.002118,-0.999892,0.009852,0.208880,-0.008698,-8.689154,4.668303,-41.679638,,,,,,,
1505840939.870649,0.015017,-0.009192,2.610821,0.000001,0.005731,-0.006291,0.015015,0.009192,-0.999845,0.008681,0.150109,-0.005892,-8.681258,4.961084,-41.647449,,,,,,,
1505840939.850672,0.014871,-0.009191,2.610919,-0.001109,0.005714,-0.003085,0.014870,0.009190,-0.999847,0.008827,0.150111,-0.005890,-8.681258,4.961084,-41.647449,,,,,,,
1505840939.890625,0.015194,-0.009195,2.610701,-0.000036,0.013168,-0.005175,0.015192,0.009194,-0.999842,0.006475,0.122809,-0.010640,-8.673708,4.960119,-41.649139,,,,,,,
1505840939.910597,0.015860,-0.014361,2.610591,0.001062,0.002551,-0.007374,0.015858,0.014361,-0.999771,0.011806,0.116148,-0.014877,-8.658567,4.957784,-41.652569,,,,,,,
1505840939.930580,0.015878,-0.014283,2.610464,0.003205,-0.000635,-0.007381,0.015875,0.014283,-0.999772,0.006372,0.123412,0.005418,-8.639665,5.170233,-41.630657,,,,,,,
1505840939.950542,0.015878,-0.014227,2.610188,0.003312,0.001532,-0.015935,0.015875,0.014227,-0.999773,0.007883,0.139017,-0.014998,-8.640905,5.167181,-41.630779,,,,,,,
1505840939.970515,0.016183,-0.020675,2.609972,0.004281,-0.011256,-0.008509,0.016179,0.020673,-0.999655,0.005900,0.160021,0.013709,-8.649930,5.158912,-41.629929,,,,,,,
1505840939.990488,0.016018,-0.020614,2.609780,0.004249,-0.000625,-0.008445,0.016014,0.020612,-0.999659,-0.004021,0.156985,0.000437,-8.637528,5.426620,-41.598457,,,,,,,
1505840940.010437,0.016200,-0.020457,2.609664,0.007416,0.005755,-0.007317,0.016196,0.020456,-0.999660,0.005853,0.142386,-0.021153,-8.637499,5.422884,-41.598949,,,,,,,
1505840940.030421,0.017211,-0.026645,2.609397,-0.005274,-0.000600,-0.017069,0.017204,0.026642,-0.999497,0.010765,0.135406,-0.015518,-8.620597,5.416743,-41.603256,,,,,,,
1505840940.050398,0.017779,-0.031223,2.609108,0.011834,-0.027144,-0.016055,0.017769,0.031218,-0.999355,0.022300,0.111436,-0.009572,-8.598586,5.666732,-41.574505,,,,,,,
1505840940.070343,0.017380,-0.034938,2.608602,-0.003079,0.014346,-0.028747,0.017369,0.034931,-0.999239,-0.014332,0.086957,-0.000136,-8.592703,6.009423,-41.527569,,,,,,,
1505840940.090327,0.017747,-0.034812,2.608161,0.016090,-0.006913,-0.021264,0.017735,0.034805,-0.999237,0.039196,0.069886,-0.062943,-8.573372,6.001672,-41.532684,,,,,,,
1505840940.110306,0.017711,-0.038043,2.607716,0.002177,-0.008013,-0.019212,0.017697,0.038034,-0.999120,-0.009961,0.086279,0.068822,-8.577037,6.128217,-41.513447,,,,,,,
1505840940.130249,0.017677,-0.037869,2.607234,0.010770,-0.003718,-0.024489,0.017663,0.037860,-0.999127,0.010794,0.069287,-0.060764,-8.581343,6.125400,-41.512974,,,,,,,
1505840940.150226,0.017900,-0.039982,2.606859,0.013932,-0.023939,-0.018166,0.017885,0.039971,-0.999041,-0.011461,0.044379,0.024187,-8.570028,6.202809,-41.503811,,,,,,,
1505840940.170215,0.018159,-0.040155,2.606469,-0.000051,0.028142,-0.021148,0.018143,0.040144,-0.999029,-0.007371,0.063585,-0.079660,-8.576734,6.201082,-41.502686,,,,,,,
1505840940.190185,0.017214,-0.040207,2.606092,-0.007226,-0.060103,-0.023865,0.017199,0.040196,-0.999044,0.042432,0.043209,0.069036,-8.579145,6.199121,-41.502480,,,,,,,
1505840940.210155,0.016855,-0.043133,2.605608,-0.010710,-0.009119,-0.015011,0.016839,0.043120,-0.998928,-0.030877,0.043169,-0.046192,-8.622538,6.316161,-41.475834,,,,,,,
1505840940.230124,0.016823,-0.042879,2.605243,0.023673,-0.052599,-0.023635,0.016807,0.042866,-0.998939,0.020318,0.057476,0.093880,-8.613775,6.315378,-41.477772,,,,,,,
1505840940.250093,0.016037,-0.042767,2.604586,0.019328,0.015479,-0.032889,0.016022,0.042754,-0.998957,-0.034118,0.044176,-0.096120,-8.665329,6.301947,-41.469074,,,,,,,
1505840940.269992,0.016534,-0.043470,2.603942,0.013855,0.060124,-0.032651,0.016518,0.043456,-0.998919,-0.027718,0.019944,-0.024732,-8.657185,6.320417,-41.467968,,,,,,,
1505840940.289958,0.016353,-0.043157,2.603555,0.029888,-0.024975,-0.015933,0.016337,0.043143,-0.998935,0.054906,0.014550,-0.068264,-8.637074,6.310001,-41.473743,,,,,,,
1505840940.309949,0.015641,-0.042885,2.603042,0.011826,-0.021792,-0.022447,0.015626,0.042871,-0.998958,0.006026,0.006643,0.108166,-8.669563,6.288606,-41.470215,,,,,,,
1505840940.329919,0.015531,-0.042345,2.602565,-0.015125,0.053612,-0.017872,0.015517,0.042332,-0.998983,0.012819,0.026088,0.108785,-8.703995,6.254435,-41.468170,,,,,,,
1505840940.349861,0.014813,-0.042248,2.602160,-0.000850,-0.048386,-0.025898,0.014799,0.042235,-0.998998,-0.021025,0.001710,-0.053172,-8.714221,6.249956,-41.466702,,,,,,,
1505840940.369858,0.015144,-0.042117,2.601575,0.025645,0.019718,-0.027471,0.015130,0.042104,-0.998999,-0.010934,0.008250,0.001318,-8.722158,6.249849,-41.465046,,,,,,,
1505840940.389828,0.014939,-0.040962,2.600980,-0.013881,0.048349,-0.029678,0.014926,0.040951,-0.999050,-0.005587,-0.022778,-0.094639,-8.734096,6.183285,-41.472515,,,,,,,
1505840940.409798,0.015575,-0.041083,2.600313,0.018324,0.019749,-0.038226,0.015561,0.041071,-0.999035,0.007312,-0.016291,0.024563,-8.704520,6.189069,-41.477867,,,,,,,
1505840940.429767,0.015491,-0.040792,2.599515,-0.011542,-0.005851,-0.033204,0.015477,0.040780,-0.999048,0.025889,-0.047876,-0.117422,-8.701020,6.173759,-41.480885,,,,,,,
1505840940.449737,0.014817,-0.039682,2.598799,0.015193,-0.001523,-0.038374,0.014805,0.039671,-0.999103,-0.029408,-0.039671,0.023975,-8.738184,6.116367,-41.481575,,,,,,,
1505840940.469706,0.015154,-0.039375,2.598014,0.017301,-0.002592,-0.036226,0.015142,0.039365,-0.999110,0.002452,-0.035688,0.074290,-8.727535,6.096694,-41.486713,,,,,,,
1505840940.489675,0.014331,-0.039438,2.597311,0.000562,-0.107872,-0.038031,0.014319,0.039428,-0.999120,0.055276,-0.038619,0.037129,-8.725280,6.089312,-41.488274,,,,,,,
1505840940.509646,0.012810,-0.039480,2.596668,-0.017022,0.026003,-0.028763,0.012800,0.039470,-0.999139,-0.017591,-0.007243,0.017983,-8.802032,6.093604,-41.471424,,,,,,,
1505840940.529614,0.012918,-0.039235,2.596188,0.012785,0.019654,-0.022197,0.012908,0.039225,-0.999147,-0.038421,-0.020945,-0.074324,-8.833412,6.072268,-41.467880,,,,,,,
1505840940.549584,0.011767,-0.039881,2.595256,-0.079209,-0.169678,-0.043167,0.011758,0.039870,-0.999136,0.136588,-0.093764,-0.231882,-8.815790,6.063533,-41.472912,,,,,,,
1505840940.569555,0.010830,-0.039935,2.594354,0.012276,-0.057841,-0.047300,0.010821,0.039924,-0.999144,0.001493,-0.107688,-0.134630,-8.911350,6.085065,-41.449322,,,,,,,
1505840940.589498,0.010997,-0.040476,2.593483,-0.015889,0.069665,-0.043487,0.010988,0.040465,-0.999121,-0.032564,-0.047026,-0.085596,-8.943089,6.089485,-41.441841,,,,,,,
1505840940.609493,0.011852,-0.037992,2.592442,-0.013237,-0.064245,-0.051773,0.011843,0.037983,-0.999208,0.059324,-0.049061,-0.168791,-8.871035,5.982752,-41.472862,,,,,,,
1505840940.629459,0.011197,-0.037978,2.591680,0.003407,0.006943,-0.035180,0.011189,0.037968,-0.999216,-0.041981,-0.032674,0.114237,-8.921584,5.976696,-41.462887,,,,,,,
1505840940.649404,0.012623,-0.037810,2.590738,-0.004064,0.078234,-0.050859,0.012614,0.037801,-0.999206,0.052023,-0.051549,-0.121766,-8.898780,5.965437,-41.469414,,,,,,,
1505840940.669379,0.012456,-0.037342,2.589888,0.001498,-0.033422,-0.042930,0.012447,0.037334,-0.999225,0.009068,-0.015804,0.023578,-8.873104,5.962119,-41.475388,,,,,,,
1505840940.689370,0.012186,-0.037548,2.589055,-0.014793,0.029235,-0.035153,0.012178,0.037539,-0.999221,-0.053819,-0.024081,-0.016206,-8.896662,5.930515,-41.474873,,,,,,,
1505840940.709341,0.014504,-0.035394,2.588482,-0.016843,-0.007983,-0.032174,0.014495,0.035387,-0.999269,0.041429,-0.051897,-0.108672,-8.891649,5.932017,-41.475735,,,,,,,
1505840940.729309,0.014764,-0.035603,2.587702,0.003515,0.012283,-0.040504,0.014754,0.035595,-0.999257,0.025575,-0.051296,-0.062754,-8.800769,5.840258,-41.508125,,,,,,,
1505840940.749253,0.014294,-0.035643,2.587177,-0.011616,-0.012295,-0.020395,0.014284,0.035635,-0.999263,0.012312,-0.056906,0.090724,-8.809123,5.834053,-41.507225,,,,,,,
1505840940.769247,0.014093,-0.032953,2.586459,0.020663,0.000633,-0.042613,0.014085,0.032947,-0.999358,-0.031847,-0.092288,-0.133775,-8.812264,5.835562,-41.506348,,,,,,,
1505840940.789219,0.015003,-0.033130,2.585875,-0.007449,0.045144,-0.024307,0.014994,0.033124,-0.999339,-0.030130,-0.089352,-0.074743,-8.805762,5.717364,-41.524178,,,,,,,
1505840940.809190,0.014921,-0.033081,2.585336,0.008837,-0.006873,-0.034162,0.014912,0.033075,-0.999342,0.038372,-0.067254,0.033201,-8.782636,5.718563,-41.528908,,,,,,,
1505840940.829153,0.013927,-0.033695,2.584700,-0.048682,-0.075069,-0.026349,0.013919,0.033688,-0.999335,0.014584,-0.094754,0.139899,-8.806135,5.714972,-41.524422,,,,,,,
1505840940.849128,0.012165,-0.031433,2.584073,0.025823,0.015469,-0.031784,0.012159,0.031428,-0.999432,-0.027601,-0.043604,-0.058200,-8.914010,5.647168,-41.510681,,,,,,,
1505840940.869099,0.012119,-0.031654,2.583279,-0.010173,-0.011111,-0.047154,0.012113,0.031648,-0.999426,-0.004026,-0.088579,0.016149,-8.915486,5.633775,-41.512184,,,,,,,
1505840940.889059,0.012063,-0.031757,2.582479,0.003454,0.027144,-0.037203,0.012056,0.031752,-0.999423,0.000639,-0.102461,-0.038709,-8.928726,5.634294,-41.509270,,,,,,,
1505840940.909037,0.012289,-0.027677,2.581766,-0.014525,-0.002644,-0.040702,0.012284,0.027673,-0.999542,0.004470,-0.096704,-0.062638,-8.913073,5.451247,-41.537064,,,,,,,
1505840940.929008,0.012034,-0.027790,2.580965,-0.016624,-0.014343,-0.040785,0.012029,0.027786,-0.999542,0.003199,-0.115845,0.016204,-8.916218,5.453850,-41.536049,,,,,,,
1505840940.948965,0.012581,-0.022221,2.580325,0.007578,0.033468,-0.023215,0.012577,0.022219,-0.999674,0.009807,-0.121187,0.032023,-8.940298,5.462614,-41.529720,,,,,,,
1505840940.968946,0.013115,-0.022341,2.579807,-0.019978,-0.003771,-0.028960,0.013112,0.022340,-0.999664,0.014629,-0.109330,-0.049667,-8.892323,5.210556,-41.572388,,,,,,,
1505840940.988917,0.013694,-0.022329,2.579091,0.008941,0.019741,-0.042568,0.013690,0.022327,-0.999657,-0.000568,-0.098133,0.024834,-8.874017,5.211766,-41.576149,,,,,,,
1505840941.008871,0.014022,-0.017238,2.578287,-0.009392,0.043035,-0.030756,0.014019,0.017237,-0.999753,0.006565,-0.114054,-0.125033,-8.876675,4.990000,-41.602779,,,,,,,
1505840941.028854,0.013921,-0.017501,2.577702,-0.010198,-0.034566,-0.033370,0.013918,0.017500,-0.999750,0.025511,-0.080824,0.064432,-8.854659,4.989616,-41.607517,,,,,,,
1505840941.048826,0.013113,-0.017351,2.576976,0.003653,-0.023902,-0.034294,0.013110,0.017350,-0.999764,-0.011111,-0.104035,0.037010,-8.877240,4.991468,-41.602482,,,,,,,
1505840941.088753,0.013093,-0.012801,2.575930,-0.013628,0.036640,-0.029748,0.013091,0.012801,-0.999832,-0.004775,-0.105254,-0.079010,-8.926523,4.782085,-41.616531,,,,,,,
1505840941.068794,0.012569,-0.012612,2.576399,0.007716,-0.008015,-0.020251,0.012568,0.012612,-0.999841,-0.004252,-0.105065,-0.079001,-8.926523,4.782085,-41.616531,,,,,,,
1505840941.108734,0.013367,-0.012765,2.575484,0.008734,-0.005902,-0.017019,0.013366,0.012765,-0.999829,0.024079,-0.098321,-0.042117,-8.897713,4.779854,-41.622955,,,,,,,
1505840941.128703,0.013248,-0.008105,2.574982,-0.009295,0.000474,-0.024585,0.013247,0.008105,-0.999879,0.036390,-0.118838,-0.044859,-8.905711,4.578227,-41.643906,,,,,,,
1505840941.148672,0.012447,-0.008348,2.574665,-0.008100,-0.075042,-0.017536,0.012446,0.008348,-0.999888,0.048528,-0.126451,0.024180,-8.905711,4.578227,-41.643906,,,,,,,
1505840941.168643,0.011422,-0.002268,2.574180,0.007839,-0.009061,-0.024539,0.011422,0.002268,-0.999932,-0.059395,-0.140177,-0.021506,-8.957219,4.336931,-41.658684,,,,,,,
1505840941.188613,0.014373,0.005059,2.573906,-0.000956,0.035525,-0.011472,0.014372,-0.005059,-0.999884,0.046449,-0.163260,-0.005808,-8.957627,4.326196,-41.659714,,,,,,,
1505840941.208581,0.014198,0.004890,2.573625,-0.004921,-0.036747,-0.018357,0.014197,-0.004890,-0.999887,0.037164,-0.148842,-0.013998,-8.859349,4.024353,-41.710949,,,,,,,
1505840941.228552,0.013965,0.004849,2.573193,-0.007089,0.002615,-0.024558,0.013965,-0.004849,-0.999891,-0.028689,-0.174686,-0.016375,-8.877607,4.024670,-41.707039,,,,,,,
1505840941.248522,0.013939,0.012678,2.572979,-0.018995,-0.023031,-0.002292,0.013938,-0.012678,-0.999822,0.011178,-0.195452,0.012136,-8.879805,3.692389,-41.737301,,,,,,,
1505840941.268491,0.013497,0.012490,2.572921,0.001298,-0.030433,-0.002216,0.013495,-0.012489,-0.999831,0.002954,-0.191109,-0.010453,-8.891904,3.702584,-41.733822,,,,,,,
1505840941.288448,0.012878,0.020722,2.572941,0.007752,-0.041062,-0.000098,0.012875,-0.020720,-0.999702,-0.008801,-0.199082,0.004738,-8.920160,3.362703,-41.756554,,,,,,,
1505840941.308431,0.012366,0.020865,2.572939,0.006607,-0.019806,0.001094,0.012363,-0.020864,-0.999706,-0.004520,-0.208049,0.001751,-8.945995,3.356431,-41.751530,,,,,,,
1505840941.328400,0.012235,0.020901,2.572967,0.002302,-0.002800,0.000100,0.012232,-0.020899,-0.999707,0.002203,-0.210760,0.003369,-8.952649,3.354721,-41.750240,,,,,,,
1505840941.348363,0.012132,0.020867,2.572947,-0.004056,-0.012376,-0.001067,0.012129,-0.020865,-0.999709,0.001238,-0.170007,-0.001588,-8.957253,3.354306,-41.749287,,,,,,,
1505840941.368319,0.012065,0.020780,2.572933,-0.007303,-0.001756,0.000049,0.012063,-0.020778,-0.999711,0.002113,-0.153386,-0.008971,-8.962383,3.356044,-41.748047,,,,,,,
1505840941.388294,0.012258,0.020671,2.572975,-0.006317,0.010989,0.003345,0.012255,-0.020669,-0.999711,0.000731,-0.147376,-0.000640,-8.961481,3.360182,-41.747910,,,,,,,
1505840941.408267,0.012727,0.026701,2.573030,-0.009520,0.029060,0.002365,0.012722,-0.026698,-0.999563,0.002308,-0.139272,-0.005488,-8.940527,3.110813,-41.771721,,,,,,,
1505840941.428248,0.013308,0.026682,2.573169,0.005340,0.021612,0.009905,0.013303,-0.026679,-0.999556,0.011218,-0.129861,-0.024538,-8.919714,3.115126,-41.775848,,,,,,,
1505840941.448218,0.013197,0.026932,2.573437,0.013900,-0.010290,0.015119,0.013191,-0.026928,-0.999550,0.004143,-0.135242,-0.000785,-8.907506,3.113544,-41.778572,,,,,,,
1505840941.468173,0.012738,0.033159,2.573761,0.005352,-0.002878,0.017256,0.012731,-0.033153,-0.999369,0.004985,-0.129674,-0.002981,-8.930263,2.851102,-41.792446,,,,,,,
1505840941.488148,0.012587,0.033222,2.574158,0.003216,-0.011398,0.019334,0.012580,-0.033216,-0.999369,0.006707,-0.144259,0.010630,-8.931703,2.850979,-41.792145,,,,,,,
1505840941.508126,0.012553,0.033334,2.574571,0.008409,0.011977,0.024861,0.012546,-0.033327,-0.999366,-0.015460,-0.142820,0.003928,-8.939150,2.852336,-41.790459,,,,,,,
1505840941.528079,0.012542,0.046536,2.574944,-0.006233,-0.011393,0.013924,0.012528,-0.046520,-0.998839,0.018325,-0.140874,0.021010,-8.960138,2.561518,-41.804802,,,,,,,
1505840941.548066,0.011667,0.052799,2.575428,0.005285,0.007692,0.029103,0.011651,-0.052775,-0.998538,-0.012230,-0.138143,0.012561,-8.943881,2.306729,-41.823112,,,,,,,
1505840941.568032,0.010639,0.058844,2.576123,0.011567,0.064044,0.028415,0.010620,-0.058810,-0.998213,-0.038895,-0.133573,-0.006838,-9.036695,1.803577,-41.827885,,,,,,,
1505840941.587985,0.010722,0.058829,2.576608,-0.009509,-0.027434,0.028808,0.010703,-0.058795,-0.998213,0.023599,-0.108991,-0.003328,-8.996663,1.803729,-41.836510,,,,,,,
1505840941.607975,0.009635,0.062828,2.577152,0.013090,-0.046486,0.020261,0.009616,-0.062787,-0.997981,-0.023883,-0.095981,0.019160,-9.035643,1.647013,-41.834568,,,,,,,
1505840941.627938,0.009415,0.062942,2.577618,-0.003166,0.014055,0.025884,0.009396,-0.062901,-0.997976,-0.021771,-0.086071,-0.021952,-9.051403,1.643561,-41.831303,,,,,,,
1505840941.647891,0.009271,0.065671,2.578354,-0.017333,0.039453,0.044160,0.009250,-0.065624,-0.997802,-0.022404,-0.050679,0.047835,-9.042406,1.658112,-41.832672,,,,,,,
1505840941.667884,0.009872,0.065834,2.579195,0.014848,0.014037,0.036703,0.009850,-0.065787,-0.997785,0.026801,-0.048059,-0.027270,-9.034293,1.541205,-41.838894,,,,,,,
1505840941.687839,0.009599,0.065767,2.579845,-0.007267,-0.054018,0.029734,0.009578,-0.065720,-0.997792,0.032688,-0.043762,0.044667,-9.021458,1.541373,-41.841660,,,,,,,
1505840941.707797,0.008320,0.065675,2.580558,-0.010624,-0.048760,0.040456,0.008301,-0.065628,-0.997810,-0.034837,-0.011871,0.160041,-9.075722,1.554394,-41.829441,,,,,,,
1505840941.727774,0.006212,0.066082,2.581499,0.021394,-0.010388,0.031245,0.006198,-0.066034,-0.997798,-0.036289,0.002054,0.070064,-9.091238,1.560507,-41.825844,,,,,,,
1505840941.747750,0.006247,0.066234,2.582236,0.022128,0.049098,0.041244,0.006233,-0.066185,-0.997788,-0.008049,0.017159,-0.016006,-9.177373,1.551040,-41.807377,,,,,,,
1505840941.767732,0.006025,0.066493,2.582993,0.002110,-0.001938,0.033320,0.006012,-0.066444,-0.997772,0.008820,0.039695,-0.094803,-9.170892,1.546123,-41.808983,,,,,,,
1505840941.787699,0.005591,0.066225,2.583752,0.008547,-0.033840,0.037450,0.005579,-0.066177,-0.997792,-0.002451,0.014099,0.040837,-9.174040,1.543070,-41.808403,,,,,,,
1505840941.807670,0.005941,0.066358,2.584678,0.012359,0.042633,0.055069,0.005928,-0.066310,-0.997781,-0.019463,0.040889,-0.021216,-9.191535,1.567778,-41.803642,,,,,,,
1505840941.827640,0.005592,0.066164,2.585499,-0.015836,-0.047670,0.028653,0.005580,-0.066116,-0.997796,0.002629,0.044662,-0.088279,-9.168547,1.579850,-41.808235,,,,,,,
1505840941.847609,0.006035,0.066581,2.586244,0.052930,0.084232,0.043782,0.006022,-0.066532,-0.997766,-0.046565,0.055896,0.161066,-9.178268,1.584467,-41.805927,,,,,,,
1505840941.867578,0.006779,0.066558,2.587296,-0.030274,0.019148,0.056815,0.006764,-0.066509,-0.997763,0.042827,0.002438,-0.085153,-9.130599,1.567960,-41.816986,,,,,,,
1505840941.887549,0.008467,0.063426,2.588068,0.004108,-0.025378,0.047109,0.008450,-0.063384,-0.997953,0.024570,0.021651,0.087751,-9.041983,1.721648,-41.830196,,,,,,,
1505840941.907518,0.007332,0.063390,2.588948,0.006393,-0.071084,0.045777,0.007317,-0.063347,-0.997965,0.044227,0.047616,-0.155707,-9.060928,1.731243,-41.825699,,,,,,,
1505840941.927468,0.007587,0.063407,2.589986,0.001830,0.032037,0.045300,0.007571,-0.063364,-0.997962,-0.002750,0.055368,0.030249,-9.089093,1.736904,-41.819355,,,,,,,
1505840941.947458,0.009444,0.061226,2.590604,-0.009510,-0.047651,0.031897,0.009426,-0.061188,-0.998082,0.042713,0.045746,-0.103115,-9.063764,1.740812,-41.824684,,,,,,,
1505840941.967427,0.009179,0.061422,2.591590,0.008246,-0.000923,0.050491,0.009162,-0.061384,-0.998072,-0.013312,0.041761,0.189662,-9.001118,1.839129,-41.834011,,,,,,,
1505840941.987395,0.008705,0.061491,2.592532,0.006074,0.011831,0.050555,0.008688,-0.061452,-0.998072,-0.012732,0.042836,0.147715,-9.016522,1.842499,-41.830544,,,,,,,
1505840942.007339,0.008490,0.061760,2.593652,0.012568,-0.028566,0.052492,0.008474,-0.061721,-0.998057,-0.024190,0.059645,-0.068608,-9.011505,1.844735,-41.831524,,,,,,,
1505840942.027335,0.008241,0.061816,2.594794,-0.019338,-0.104158,0.061485,0.008225,-0.061777,-0.998056,0.041458,0.042535,0.060724,-9.005586,1.846348,-41.832729,,,,,,,
1505840942.047304,0.007102,0.058561,2.596251,0.028170,0.004319,0.074204,0.007089,-0.058527,-0.998261,-0.007272,0.068461,0.006195,-9.042742,1.860550,-41.824085,,,,,,,
1505840942.067275,0.008235,0.058674,2.597578,0.003651,0.063877,0.059423,0.008221,-0.058640,-0.998245,0.059788,0.050401,-0.009735,-9.028615,2.008435,-41.820293,,,,,,,
1505840942.087245,0.005711,0.056711,2.598769,0.012608,-0.043453,0.050264,0.005702,-0.056680,-0.998376,-0.034312,0.045053,-0.001395,-9.033562,2.009858,-41.819160,,,,,,,
1505840942.107206,0.006063,0.056836,2.599888,-0.005929,0.019160,0.066595,0.006054,-0.056805,-0.998367,-0.026684,0.059353,0.040680,-9.106716,2.100983,-41.798809,,,,,,,
1505840942.127170,0.007978,0.057574,2.601240,-0.006897,0.052186,0.051795,0.007965,-0.057542,-0.998311,0.145752,0.004899,-0.260295,-9.020472,2.086692,-41.818222,,,,,,,
1505840942.147146,0.007357,0.057182,2.602289,0.030476,0.022472,0.056123,0.007345,-0.057151,-0.998339,0.040445,0.131950,-0.179793,-9.009037,2.090462,-41.820496,,,,,,,
1505840942.167120,0.007757,0.057618,2.603333,0.029422,0.051210,0.048794,0.007744,-0.057587,-0.998311,-0.016594,0.077072,-0.040889,-9.029720,2.115485,-41.814781,,,,,,,
1505840942.187092,0.007492,0.053722,2.604205,-0.016170,0.010775,0.034357,0.007481,-0.053697,-0.998529,0.089153,0.092637,0.091089,-9.018707,2.273954,-41.808838,,,,,,,
1505840942.207062,0.006142,0.053532,2.604719,-0.017939,-0.077434,0.026318,0.006133,-0.053507,-0.998549,-0.064376,0.085657,0.152403,-9.054345,2.286660,-41.800442,,,,,,,
1505840942.227031,0.005670,0.049295,2.605400,-0.014094,0.059718,0.026098,0.005663,-0.049275,-0.998769,-0.018466,0.078419,0.068868,-9.072899,2.298975,-41.795742,,,,,,,
1505840942.247002,0.005986,0.048960,2.605961,-0.023530,-0.018998,0.030922,0.005979,-0.048941,-0.998784,0.045611,0.099539,-0.135951,-9.067583,2.487668,-41.786087,,,,,,,
1505840942.266958,0.005343,0.049125,2.606404,-0.001815,-0.074163,0.014655,0.005336,-0.049105,-0.998779,0.002705,0.099001,-0.157104,-9.080733,2.490202,-41.783085,,,,,,,
1505840942.286939,0.004902,0.048768,2.606607,-0.018021,-0.001897,0.013923,0.004897,-0.048749,-0.998799,-0.006224,0.102215,0.115285,-9.110793,2.499398,-41.775990,,,,,,,
1505840942.306910,0.004890,0.048967,2.607075,0.016149,-0.049710,0.022406,0.004884,-0.048947,-0.998789,0.028960,0.113813,-0.121419,-9.101807,2.506415,-41.777527,,,,,,,
1505840942.326864,0.004693,0.044012,2.607520,-0.011764,0.017226,0.018361,0.004688,-0.043998,-0.999021,0.041561,0.126380,0.002210,-9.111894,2.504067,-41.775471,,,,,,,
1505840942.346848,0.003793,0.044043,2.607929,-0.023227,-0.059328,0.014618,0.003789,-0.044029,-0.999023,0.027827,0.109886,-0.083908,-9.128054,2.710898,-41.759026,,,,,,,
1505840942.366820,0.002844,0.038563,2.608421,-0.038532,0.010757,0.024590,0.002842,-0.038554,-0.999252,-0.049915,0.096751,0.159714,-9.193894,2.941453,-41.728970,,,,,,,
1505840942.386770,0.003444,0.038329,2.608678,-0.020982,-0.078436,0.008092,0.003441,-0.038320,-0.999260,0.103752,0.092443,-0.019310,-9.152425,2.957472,-41.736954,,,,,,,
1505840942.406740,0.003339,0.038154,2.609161,-0.016097,-0.027502,0.030919,0.003336,-0.038144,-0.999267,-0.017939,0.099195,0.102965,-9.170016,2.968578,-41.732304,,,,,,,
1505840942.426728,0.004106,0.037936,2.609863,-0.021762,0.068154,0.034675,0.004103,-0.037927,-0.999272,-0.002043,0.092202,0.030873,-9.146783,2.984052,-41.736298,,,,,,,
1505840942.446682,0.004529,0.037866,2.610291,0.019369,-0.029467,0.011842,0.004526,-0.037857,-0.999273,0.068839,0.114716,-0.082224,-9.109056,3.001370,-41.743305,,,,,,,
1505840942.466666,0.004683,0.033364,2.610563,0.007227,0.068288,0.018785,0.004680,-0.033358,-0.999433,0.002369,0.093432,-0.105029,-9.119345,2.996275,-41.741425,,,,,,,
1505840942.486637,0.005366,0.033398,2.610629,-0.004034,0.004577,-0.003086,0.005363,-0.033392,-0.999428,0.048165,0.114370,-0.078911,-9.076928,3.185803,-41.736637,,,,,,,
1505840942.506604,0.004795,0.033286,2.610729,-0.026457,-0.045495,0.009330,0.004792,-0.033279,-0.999435,0.011138,0.098785,0.108459,-9.078693,3.182628,-41.736492,,,,,,,
1505840942.526575,0.004877,0.033080,2.610978,0.001161,-0.010362,0.010778,0.004874,-0.033074,-0.999441,-0.011969,0.121681,-0.032602,-9.098718,3.198642,-41.730911,,,,,,,
1505840942.546531,0.005666,0.027364,2.611109,-0.004160,-0.002902,0.005437,0.005663,-0.027360,-0.999610,0.026014,0.106248,0.050086,-9.060921,3.441347,-41.719822,,,,,,,
1505840942.566497,0.006099,0.027136,2.611173,-0.017050,0.021519,0.006578,0.006097,-0.027133,-0.999613,0.051032,0.108279,-0.041753,-9.057243,3.445286,-41.720295,,,,,,,
1505840942.586484,0.005734,0.026904,2.611516,-0.011765,0.000227,0.015049,0.005732,-0.026901,-0.999622,0.033712,0.113525,0.110339,-9.046947,3.456081,-41.721638,,,,,,,
1505840942.606455,0.006328,0.026675,2.611693,-0.005484,0.031060,0.017415,0.006326,-0.026672,-0.999624,0.025519,0.123611,0.042913,-9.037888,3.474638,-41.722061,,,,,,,
1505840942.626411,0.007980,0.020358,2.612080,-0.012800,0.000261,0.009689,0.007978,-0.020356,-0.999761,0.027102,0.133988,-0.052500,-8.959730,3.737506,-41.716198,,,,,,,
1505840942.646392,0.007761,0.020296,2.612178,-0.004207,-0.018859,0.009626,0.007759,-0.020295,-0.999764,0.004021,0.133378,0.114418,-8.961956,3.745469,-41.715004,,,,,,,
1505840942.666363,0.008755,0.013009,2.612505,-0.013993,-0.000829,0.016102,0.008754,-0.013008,-0.999877,0.022878,0.149468,-0.095612,-8.969723,3.755185,-41.712460,,,,,,,
1505840942.686332,0.008587,0.012802,2.612732,0.002142,-0.016714,0.009677,0.008586,-0.012802,-0.999881,0.024525,0.174026,0.040759,-8.928614,4.061467,-41.692581,,,,,,,
1505840942.706302,0.007549,0.012901,2.613027,-0.000028,-0.042274,0.018078,0.007548,-0.012901,-0.999888,0.042272,0.182655,-0.041341,-8.940857,4.062401,-41.689865,,,,,,,
1505840942.726272,0.007231,0.003272,2.613357,-0.007615,-0.003996,0.013980,0.007231,-0.003272,-0.999969,-0.010649,0.196097,-0.015962,-8.985962,4.463888,-41.639080,,,,,,,
1505840942.746241,0.007735,0.003169,2.613491,-0.003325,0.025821,0.005618,0.007735,-0.003169,-0.999965,0.020356,0.199214,-0.003056,-8.977154,4.469339,-41.640396,,,,,,,
1505840942.766210,0.009603,-0.006044,2.613689,-0.001230,-0.007161,0.012932,0.009602,0.006044,-0.999936,0.036144,0.188063,-0.005191,-8.960874,4.472438,-41.643570,,,,,,,
1505840942.786181,0.009291,-0.006033,2.613931,0.002048,-0.009255,0.007585,0.009291,0.006033,-0.999939,0.008150,0.194025,-0.010041,-8.896688,4.858158,-41.614109,,,,,,,
1505840942.806136,0.009314,-0.006045,2.614030,0.002029,0.010959,0.004493,0.009314,0.006045,-0.999938,0.010400,0.196333,-0.010590,-8.899403,4.859683,-41.613350,,,,,,,
1505840942.826119,0.010208,-0.015242,2.614036,-0.001131,0.007797,-0.001970,0.010206,0.015242,-0.999832,0.014360,0.185320,0.003814,-8.894485,4.859531,-41.614418,,,,,,,
1505840942.846089,0.010278,-0.015286,2.614002,-0.002192,0.001411,-0.000944,0.010277,0.015286,-0.999830,0.015023,0.182834,-0.003145,-8.857792,5.242372,-41.575764,,,,,,,
1505840942.866058,0.010918,-0.022389,2.613941,-0.000058,0.001434,-0.004143,0.010915,0.022387,-0.999690,0.012630,0.145460,0.000636,-8.857314,5.242525,-41.575844,,,,,,,
1505840942.886025,0.012013,-0.035290,2.613914,-0.000105,-0.008129,-0.004201,0.012006,0.035283,-0.999305,0.012866,0.142879,-0.009743,-8.807851,5.808325,-41.511105,,,,,,,
1505840942.905980,0.012750,-0.047838,2.613817,0.000925,-0.001724,-0.008440,0.012735,0.047819,-0.998775,0.010123,0.158296,-0.005452,-8.772903,6.337671,-41.441006,,,,,,,
1505840942.925968,0.013688,-0.059978,2.613695,0.000894,-0.005962,-0.010607,0.013663,0.059942,-0.998108,0.011102,0.153010,-0.012268,-8.736645,6.845673,-41.367794,,,,,,,
1505840942.945929,0.013942,-0.065769,2.613545,-0.002388,-0.009176,-0.006362,0.013911,0.065722,-0.997741,0.010533,0.154951,-0.014588,-8.724022,7.087798,-41.329666,,,,,,,
1505840942.965902,0.014490,-0.076472,2.613422,0.007217,-0.008065,-0.011653,0.014447,0.076398,-0.996973,0.010135,0.143100,-0.008581,-8.697883,7.560912,-41.251259,,,,,,,
1505840942.985876,0.014235,-0.085147,2.613086,-0.006739,0.027014,-0.016883,0.014183,0.085044,-0.996276,-0.011833,0.118371,0.010253,-8.687256,7.947137,-41.180840,,,,,,,
1505840943.005820,0.014491,-0.089339,2.612799,-0.001518,0.028054,-0.010423,0.014433,0.089220,-0.995907,0.013644,0.109099,-0.025806,-8.692298,8.117296,-41.146572,,,,,,,
1505840943.025787,0.018482,-0.097852,2.612837,0.018938,-0.009051,-0.020151,0.018393,0.097696,-0.995046,0.029276,0.071967,-0.031428,-8.571410,8.553175,-41.083588,,,,,,,
1505840943.045784,0.018340,-0.099943,2.612338,0.001888,-0.015458,-0.021362,0.018248,0.099776,-0.994843,-0.008070,0.075715,0.046082,-8.543837,8.628169,-41.073647,,,,,,,
1505840943.065743,0.018297,-0.099769,2.612129,0.018748,0.002594,-0.009372,0.018205,0.099603,-0.994861,-0.014161,0.072608,-0.056592,-8.544282,8.714391,-41.055347,,,,,,,
1505840943.085697,0.018434,-0.102236,2.611861,-0.002512,0.004714,-0.016983,0.018337,0.102058,-0.994609,0.025853,0.066369,-0.035588,-8.549350,8.706041,-41.056061,,,,,,,
1505840943.105667,0.017823,-0.101770,2.611221,0.016979,-0.001530,-0.037252,0.017730,0.101594,-0.994668,-0.006027,0.032790,-0.088767,-8.552872,8.793062,-41.036777,,,,,,,
1505840943.125649,0.018338,-0.101707,2.610592,0.019011,-0.000498,-0.029737,0.018242,0.101531,-0.994665,0.002189,0.063752,0.035955,-8.552289,8.779268,-41.039852,,,,,,,
1505840943.145633,0.017675,-0.101623,2.610015,-0.002390,-0.012271,-0.022439,0.017582,0.101449,-0.994685,-0.005253,0.027626,0.072551,-8.575218,8.763902,-41.038353,,,,,,,
1505840943.165600,0.018012,-0.101894,2.609642,0.031765,-0.028156,-0.020187,0.017918,0.101718,-0.994652,-0.014180,-0.001620,-0.024208,-8.559935,8.778424,-41.038437,,,,,,,
1505840943.185555,0.018266,-0.102036,2.609391,-0.023014,0.056745,-0.011434,0.018170,0.101859,-0.994633,-0.036084,-0.004615,0.028034,-8.559935,8.778424,-41.038437,,,,,,,
1505840943.205539,0.020075,-0.101777,2.609452,-0.014015,-0.087800,-0.014384,0.019970,0.101602,-0.994625,-0.013088,0.020377,0.035030,-8.575928,8.769629,-41.036983,,,,,,,
1505840943.225510,0.019821,-0.101710,2.609157,-0.001517,-0.010191,-0.008487,0.019717,0.101535,-0.994637,-0.008304,-0.017978,-0.126350,-8.492056,8.759100,-41.056667,,,,,,,
1505840943.245461,0.018633,-0.101449,2.608913,0.006339,-0.111143,-0.015474,0.018536,0.101275,-0.994686,0.051440,-0.020144,0.148449,-8.502512,8.751686,-41.056084,,,,,,,
1505840943.265436,0.017699,-0.101295,2.608436,-0.002202,-0.062206,-0.025940,0.017607,0.101122,-0.994718,-0.069304,-0.015429,0.128294,-8.570976,8.736057,-41.045174,,,,,,,
1505840943.285420,0.017636,-0.100913,2.608300,0.024182,-0.069706,-0.002266,0.017545,0.100742,-0.994758,0.052874,-0.039127,-0.004678,-8.573604,8.723579,-41.047279,,,,,,,
1505840943.305389,0.017074,-0.100536,2.608102,0.000577,-0.001687,-0.007352,0.016987,0.100366,-0.994806,-0.010380,-0.056620,0.137551,-8.604608,8.704615,-41.044819,,,,,,,
1505840943.325351,0.016260,-0.098555,2.607920,0.007767,0.038657,0.005781,0.016180,0.098396,-0.995016,0.042612,-0.059852,-0.024317,-8.654032,8.619886,-41.052307,,,,,,,
1505840943.345328,0.015866,-0.098603,2.607888,-0.010112,0.014234,-0.008395,0.015789,0.098443,-0.995017,-0.015194,-0.069009,0.018455,-8.664707,8.618500,-41.050346,,,,,,,
1505840943.365273,0.016459,-0.098335,2.607667,0.004855,0.013211,-0.010454,0.016379,0.098176,-0.995034,0.000833,-0.094850,0.016107,-8.657279,8.619648,-41.051674,,,,,,,
1505840943.385256,0.017079,-0.093756,2.607063,-0.000197,0.061181,-0.040182,0.017003,0.093619,-0.995463,-0.008672,-0.121482,0.020762,-8.613834,8.615990,-41.061581,,,,,,,
1505840943.405236,0.016978,-0.093394,2.605945,0.005629,-0.036546,-0.055730,0.016903,0.093258,-0.995498,0.042927,-0.134762,-0.018921,-8.614746,8.392528,-41.107643,,,,,,,
1505840943.425207,0.016437,-0.093157,2.604842,0.014044,-0.001451,-0.054397,0.016365,0.093022,-0.995530,-0.055397,-0.096455,0.096131,-8.638033,8.380262,-41.105259,,,,,,,
1505840943.445163,0.017091,-0.092860,2.603670,0.006614,0.009191,-0.059732,0.017016,0.092727,-0.995546,0.018873,-0.111754,0.040804,-8.629504,8.349931,-41.113224,,,,,,,
1505840943.465146,0.018677,-0.089460,2.602832,-0.007006,-0.108875,-0.050878,0.018602,0.089341,-0.995827,-0.002992,-0.100586,0.019128,-8.543650,8.199617,-41.161381,,,,,,,
1505840943.485115,0.018015,-0.089765,2.602073,0.005301,-0.023885,-0.032085,0.017942,0.089645,-0.995812,0.009310,-0.077713,0.026711,-8.591196,8.206609,-41.150085,,,,,,,
1505840943.505069,0.016479,-0.086033,2.601350,-0.005286,0.017611,-0.045824,0.016418,0.085927,-0.996166,0.151658,-0.162435,-0.290104,-8.666500,8.045483,-41.166111,,,,,,,
1505840943.525054,0.013986,-0.086980,2.600510,0.009641,-0.021741,-0.036333,0.013933,0.086871,-0.996122,-0.062349,-0.078768,0.230284,-8.765275,8.079187,-41.138588,,,,,,,
1505840943.545010,0.013265,-0.087127,2.599721,-0.031919,-0.014356,-0.041892,0.013215,0.087017,-0.996119,-0.069642,-0.105114,-0.129964,-8.784011,8.065745,-41.137230,,,,,,,
1505840943.564993,0.014573,-0.087488,2.598952,-0.013941,0.029258,-0.039379,0.014517,0.087377,-0.996070,0.065424,-0.121923,0.013449,-8.758482,8.080793,-41.139721,,,,,,,
1505840943.584963,0.013555,-0.087491,2.598353,0.000986,-0.033508,-0.024675,0.013503,0.087379,-0.996084,-0.041838,-0.121696,0.022649,-8.754062,8.081935,-41.140434,,,,,,,
1505840943.604932,0.017453,-0.081885,2.598049,0.000706,0.099428,-0.030294,0.017394,0.081793,-0.996498,0.058183,-0.132269,-0.092064,-8.783151,8.072690,-41.136051,,,,,,,
1505840943.624903,0.016861,-0.082268,2.597437,0.003198,-0.043053,-0.025783,0.016803,0.082175,-0.996476,0.002896,-0.098227,0.066163,-8.656083,7.855384,-41.204998,,,,,,,
1505840943.644872,0.014249,-0.079015,2.596689,-0.006447,-0.012242,-0.027799,0.014204,0.078933,-0.996779,-0.038893,-0.077010,0.016310,-8.665949,7.853612,-41.203262,,,,,,,
1505840943.664841,0.014526,-0.079148,2.596234,-0.027892,0.004705,-0.023541,0.014480,0.079065,-0.996764,0.009766,-0.110208,-0.000306,-8.770590,7.708297,-41.208565,,,,,,,
1505840943.684812,0.015096,-0.079314,2.595663,0.013821,0.012275,-0.032885,0.015048,0.079231,-0.996743,0.048261,-0.127830,-0.135993,-8.747443,7.720040,-41.211285,,,,,,,
1505840943.704780,0.014855,-0.079621,2.595179,-0.016206,0.016417,-0.022330,0.014807,0.079537,-0.996722,-0.010077,-0.101449,0.095126,-8.746184,7.715761,-41.212353,,,,,,,
1505840943.724751,0.013337,-0.073900,2.594199,0.002116,0.070773,-0.045455,0.013300,0.073833,-0.997182,0.006994,-0.145275,-0.170894,-8.841897,7.487518,-41.234024,,,,,,,
1505840943.744721,0.013768,-0.074166,2.593580,-0.016131,0.022804,-0.026576,0.013730,0.074098,-0.997156,0.005939,-0.102738,0.070597,-8.813259,7.482573,-41.241051,,,,,,,
1505840943.764674,0.013546,-0.074067,2.592863,-0.014758,-0.027106,-0.038649,0.013508,0.074000,-0.997167,0.047695,-0.165262,-0.095271,-8.809557,7.484726,-41.241451,,,,,,,
1505840943.784659,0.012723,-0.074807,2.592240,0.004404,-0.007951,-0.035201,0.012687,0.074737,-0.997123,-0.022514,-0.070923,0.022528,-8.845506,7.495051,-41.231884,,,,,,,
1505840943.804629,0.012955,-0.068688,2.591550,-0.019025,-0.000544,-0.037437,0.012924,0.068634,-0.997558,0.007050,-0.131729,-0.016663,-8.858614,7.498561,-41.228428,,,,,,,
1505840943.824575,0.012672,-0.069060,2.590670,-0.007205,-0.000490,-0.043792,0.012641,0.069006,-0.997536,-0.008033,-0.091940,0.048043,-8.865393,7.247936,-41.271767,,,,,,,
1505840943.844568,0.012902,-0.069270,2.589921,-0.023315,0.006889,-0.037418,0.012870,0.069214,-0.997519,-0.001518,-0.103684,-0.058679,-8.862391,7.244697,-41.272980,,,,,,,
1505840943.864536,0.012995,-0.069415,2.589122,-0.006157,-0.013266,-0.039579,0.012964,0.069359,-0.997508,0.003318,-0.121025,0.063166,-8.860899,7.249074,-41.272533,,,,,,,
,,,,,,,,,,,,,,,,42.293759,-71.264198,60.414902,-1.000000,-1.000000,1505840943.862770,
1505840943.884489,0.012723,-0.065271,2.588332,-0.005118,-0.013286,-0.035288,0.012695,0.065224,-0.997790,0.004486,-0.090646,-0.062726,-8.867344,7.068398,-41.302479,,,,,,,
1505840943.904476,0.012782,-0.065255,2.587875,-0.011706,-0.021880,-0.019314,0.012755,0.065209,-0.997790,0.014589,-0.118111,0.049563,-8.871982,7.066129,-41.301868,,,,,,,
1505840943.924447,0.013447,-0.060326,2.587249,0.009921,-0.000456,-0.043687,0.013422,0.060290,-0.998091,0.009924,-0.104311,-0.002169,-8.867246,7.055912,-41.304634,,,,,,,
1505840943.944407,0.013995,-0.060259,2.586554,0.001075,0.041986,-0.029561,0.013969,0.060223,-0.998087,0.022958,-0.120312,-0.033468,-8.846931,6.850044,-41.343624,,,,,,,
1505840943.964385,0.013773,-0.060328,2.585871,0.001473,-0.038756,-0.041827,0.013748,0.060291,-0.998086,0.021729,-0.105854,0.180154,-8.828247,6.845519,-41.348370,,,,,,,
1505840943.984356,0.012646,-0.060117,2.585111,0.003422,-0.033497,-0.028932,0.012622,0.060081,-0.998114,-0.026722,-0.137824,0.062765,-8.883681,6.828947,-41.339237,,,,,,,
1505840944.004324,0.013449,-0.060401,2.584548,-0.021386,0.074913,-0.032710,0.013425,0.060365,-0.998086,-0.019238,-0.137818,-0.021796,-8.888440,6.827858,-41.338394,,,,,,,
1505840944.024269,0.016085,-0.054750,2.584151,0.021386,0.016499,-0.024236,0.016060,0.054723,-0.998372,0.044930,-0.114461,0.023763,-8.849904,6.834907,-41.345493,,,,,,,
1505840944.044263,0.015176,-0.055062,2.583665,-0.017855,-0.070767,-0.022855,0.015152,0.055034,-0.998370,0.014068,-0.135616,-0.029981,-8.777317,6.602211,-41.398746,,,,,,,
1505840944.064208,0.014747,-0.054944,2.583199,0.003235,0.016457,-0.023274,0.014724,0.054916,-0.998382,-0.062163,-0.161453,-0.006409,-8.815097,6.597322,-41.391499,,,,,,,
1505840944.084202,0.014528,-0.047618,2.582761,-0.006339,0.003653,-0.019123,0.014511,0.047600,-0.998761,-0.021881,-0.161156,-0.027240,-8.803828,6.595384,-41.394203,,,,,,,
1505840944.104172,0.014397,-0.047910,2.582129,-0.031772,-0.011237,-0.029004,0.014379,0.047891,-0.998749,0.034159,-0.189356,-0.102020,-8.827669,6.289896,-41.436653,,,,,,,
1505840944.124142,0.013719,-0.040607,2.582103,0.048198,-0.117532,0.001893,0.013707,0.040595,-0.999082,0.018306,-0.148872,0.036511,-8.849373,6.306471,-41.429501,,,,,,,
1505840944.144110,0.012716,-0.040414,2.581729,-0.007086,-0.031367,-0.032189,0.012705,0.040403,-0.999103,-0.025919,-0.160322,-0.075131,-8.887690,5.982021,-41.469402,,,,,,,
1505840944.164081,0.012322,-0.040357,2.581179,0.007567,0.001554,-0.017980,0.012312,0.040346,-0.999110,-0.024076,-0.176622,0.050898,-8.920135,5.976480,-41.463234,,,,,,,
1505840944.184051,0.012838,-0.031878,2.580968,0.014850,0.047245,-0.010162,0.012831,0.031873,-0.999410,-0.004652,-0.181943,-0.058955,-8.908751,5.624827,-41.514843,,,,,,,
1505840944.204019,0.013073,-0.031854,2.580561,-0.005060,-0.020780,-0.022472,0.013066,0.031848,-0.999407,0.030391,-0.200733,-0.016355,-8.890767,5.617955,-41.519630,,,,,,,
1505840944.223990,0.012456,-0.031715,2.580207,0.001211,-0.029328,-0.010705,0.012450,0.031710,-0.999420,0.005907,-0.229998,0.006668,-8.911966,5.608099,-41.516418,,,,,,,
1505840944.243959,0.011551,-0.021029,2.580104,0.008618,-0.010207,-0.005188,0.011548,0.021027,-0.999712,-0.010801,-0.226548,0.008028,-8.953447,5.165681,-41.564869,,,,,,,
1505840944.263928,0.011462,-0.020906,2.580015,0.005294,0.012092,-0.000790,0.011459,0.020904,-0.999716,-0.010437,-0.238480,0.023199,-8.959521,5.161804,-41.564041,,,,,,,
1505840944.283898,0.011470,-0.020853,2.580056,0.001061,-0.013447,0.002244,0.011468,0.020852,-0.999717,0.010566,-0.297524,0.005454,-8.956514,5.156056,-41.565403,,,,,,,
1505840944.303867,0.011137,-0.020900,2.579999,-0.003125,-0.012362,-0.004200,0.011135,0.020899,-0.999720,-0.002224,-0.301416,-0.014532,-8.970663,5.156893,-41.562248,,,,,,,
1505840944.323830,0.011022,-0.020996,2.579943,-0.002092,-0.005986,-0.003085,0.011019,0.020995,-0.999719,-0.008730,-0.308668,0.016092,-8.976893,5.158473,-41.560707,,,,,,,
1505840944.343784,0.011029,-0.021023,2.579899,0.000018,-0.002798,-0.001982,0.011026,0.021021,-0.999718,0.006003,-0.282343,0.007378,-8.977655,5.161586,-41.560158,,,,,,,
1505840944.363776,0.011026,-0.021023,2.579902,-0.000064,0.005687,0.002353,0.011023,0.021022,-0.999718,-0.003668,-0.234584,-0.011985,-8.979633,5.161421,-41.559750,,,,,,,
1505840944.383738,0.011236,-0.021024,2.579971,0.000981,0.013131,0.002404,0.011233,0.021023,-0.999716,-0.002017,-0.222195,0.005621,-8.976023,5.162157,-41.560436,,,,,,,
1505840944.403699,0.011404,-0.021052,2.580051,-0.003299,0.007797,0.004488,0.011401,0.021050,-0.999713,0.005459,-0.185784,-0.013363,-8.965215,5.162418,-41.562740,,,,,,,
1505840944.423666,0.011286,-0.021089,2.580150,-0.002173,-0.016658,0.005418,0.011283,0.021088,-0.999714,0.009942,-0.180512,-0.015728,-8.962724,5.165271,-41.562920,,,,,,,
1505840944.443654,0.010830,-0.021105,2.580349,-0.000079,-0.031568,0.011767,0.010827,0.021103,-0.999719,0.010184,-0.191544,-0.012397,-8.970246,5.167360,-41.561039,,,,,,,
1505840944.463624,0.010709,-0.021127,2.580624,-0.000194,-0.002874,0.014081,0.010707,0.021125,-0.999720,-0.014537,-0.216926,-0.004141,-8.987999,5.169908,-41.556885,,,,,,,
1505840944.483594,0.011010,-0.021129,2.581031,-0.005672,0.011964,0.021635,0.011007,0.021127,-0.999716,0.000421,-0.231668,0.015631,-8.982274,5.173365,-41.557693,,,,,,,
1505840944.503562,0.011173,-0.021216,2.581447,0.009211,0.010910,0.026001,0.011170,0.021214,-0.999713,0.009002,-0.211751,-0.018339,-8.973202,5.179259,-41.558918,,,,,,,
1505840944.523516,0.010623,-0.021392,2.582095,-0.016309,-0.022103,0.026721,0.010621,0.021390,-0.999715,-0.004807,-0.241239,-0.034602,-8.968899,5.184827,-41.559155,,,,,,,
1505840944.543490,0.009187,-0.008912,2.582500,-0.005629,0.001300,0.026928,0.009187,0.008912,-0.999918,-0.015580,-0.222535,0.019602,-9.002758,5.206907,-41.549068,,,,,,,
1505840944.563466,0.009861,-0.008915,2.583149,-0.003650,0.048077,0.028293,0.009860,0.008915,-0.999912,-0.016254,-0.222538,0.019595,-9.002758,5.206907,-41.549068,,,,,,,
1505840944.583438,0.011213,-0.009516,2.583784,-0.027366,0.110734,0.032813,0.011212,0.009516,-0.999892,-0.017712,-0.237345,0.089781,-8.977055,4.713582,-41.613476,,,,,,,
1505840944.603411,0.012074,-0.008863,2.584622,0.034737,-0.029547,0.047332,0.012074,0.008863,-0.999888,0.042080,-0.228605,0.014964,-8.911809,4.717629,-41.627041,,,,,,,
1505840944.623360,0.009916,-0.000100,2.585552,0.018857,-0.018922,0.039807,0.009915,0.000100,-0.999951,-0.024961,-0.145134,0.065091,-8.920691,4.707019,-41.626339,,,,,,,
1505840944.643344,0.009830,-0.000062,2.586132,-0.009970,0.035290,0.029252,0.009830,0.000062,-0.999952,-0.053714,-0.131257,-0.006091,-9.008177,4.346753,-41.646671,,,,,,,
1505840944.663318,0.012696,0.008431,2.586842,0.009197,0.022535,0.038927,0.012696,-0.008431,-0.999884,0.027740,-0.151466,-0.039392,-8.963482,4.346772,-41.656311,,,,,,,
1505840944.683266,0.012264,0.008233,2.587577,0.008301,-0.019977,0.035452,0.012263,-0.008233,-0.999891,0.050878,-0.128181,-0.052355,-8.882885,4.008768,-41.707443,,,,,,,
1505840944.703250,0.011191,0.008467,2.588251,-0.013076,-0.011520,0.036447,0.011190,-0.008467,-0.999902,-0.060568,-0.092683,-0.128303,-8.904407,4.014873,-41.702271,,,,,,,
1505840944.723227,0.012410,0.008268,2.589317,0.014206,0.065000,0.054207,0.012409,-0.008268,-0.999889,0.038479,-0.079958,0.025783,-8.913262,4.030138,-41.698902,,,,,,,
1505840944.743172,0.014825,0.012944,2.590194,-0.023655,-0.035981,0.037303,0.014824,-0.012944,-0.999806,0.050057,-0.090114,-0.064677,-8.874233,4.031889,-41.707054,,,,,,,
1505840944.763156,0.014036,0.012771,2.591125,-0.013131,-0.034948,0.048082,0.014035,-0.012770,-0.999820,-0.033841,-0.031968,0.124652,-8.782674,3.851949,-41.743431,,,,,,,
1505840944.783137,0.013315,0.014294,2.591990,0.011411,0.008728,0.038864,0.013313,-0.014294,-0.999809,-0.014335,-0.029011,-0.081657,-8.797051,3.867933,-41.738922,,,,,,,
1505840944.803078,0.013926,0.014739,2.592929,0.018762,-0.013649,0.052695,0.013924,-0.014739,-0.999794,0.036888,-0.036882,0.003640,-8.797051,3.867933,-41.738922,,,,,,,
1505840944.823062,0.012781,0.015774,2.593906,0.030608,-0.025297,0.047342,0.012779,-0.015774,-0.999794,-0.006355,-0.016712,-0.049889,-8.809704,3.800440,-41.742455,,,,,,,
1505840944.843046,0.012758,0.016066,2.594902,0.004644,0.056473,0.056247,0.012756,-0.016065,-0.999790,0.024353,-0.008242,-0.024808,-8.851717,3.760218,-41.737209,,,,,,,
1505840944.863015,0.012500,0.015948,2.595916,-0.018265,-0.055122,0.038302,0.012498,-0.015947,-0.999795,0.043135,-0.004652,-0.058631,-8.851717,3.760218,-41.737209,,,,,,,
1505840944.882968,0.012877,0.015521,2.596810,0.054902,0.058745,0.046923,0.012875,-0.015520,-0.999797,0.025608,-0.025847,-0.007970,-8.838611,3.811657,-41.735321,,,,,,,
1505840944.902955,0.013054,0.015274,2.597849,-0.027104,-0.003096,0.049272,0.013052,-0.015273,-0.999798,-0.001349,0.045592,0.000073,-8.813766,3.814465,-41.740322,,,,,,,
1505840944.922896,0.012987,0.015507,2.598696,-0.006647,-0.027468,0.040680,0.012985,-0.015506,-0.999795,0.061020,-0.000729,-0.180502,-8.810966,3.817704,-41.740616,,,,,,,
1505840944.942874,0.012173,0.015710,2.599672,-0.000615,0.034141,0.055010,0.012172,-0.015709,-0.999803,-0.024897,-0.025017,0.168488,-8.850227,3.818624,-41.732224,,,,,,,
1505840944.962863,0.012669,0.015680,2.600481,0.015866,-0.007163,0.028086,0.012667,-0.015679,-0.999797,0.085981,-0.001487,-0.218297,-8.816816,3.832054,-41.738060,,,,,,,
1505840944.982827,0.011806,0.016032,2.601258,0.003869,0.004427,0.045219,0.011805,-0.016031,-0.999802,-0.009241,-0.008383,0.020172,-8.830288,3.826657,-41.735710,,,,,,,
1505840945.002799,0.011701,0.015494,2.602059,0.007087,0.035302,0.036858,0.011699,-0.015494,-0.999812,0.016911,0.011511,0.008570,-8.859160,3.852290,-41.727234,,,,,,,
1505840945.022772,0.011973,0.015736,2.602891,0.012441,0.019355,0.038935,0.011971,-0.015736,-0.999804,-0.016015,0.009434,0.042834,-8.840755,3.851025,-41.731255,,,,,,,
1505840945.042720,0.010845,0.013952,2.603725,-0.025693,-0.108336,0.045435,0.010843,-0.013952,-0.999844,-0.006037,0.032049,0.062008,-8.820349,3.847514,-41.735893,,,,,,,
1505840945.062708,0.010865,0.014342,2.604791,0.023856,0.046936,0.056306,0.010863,-0.014342,-0.999838,-0.041350,0.002928,-0.034204,-8.884572,3.928370,-41.714733,,,,,,,
1505840945.082662,0.011358,0.014428,2.605744,0.009387,-0.051904,0.042772,0.011357,-0.014428,-0.999831,0.056041,0.018517,0.098373,-8.838811,3.931272,-41.724178,,,,,,,
1505840945.102625,0.010430,0.013619,2.606743,0.013312,-0.001995,0.057019,0.010428,-0.013618,-0.999853,-0.003211,0.026710,0.016409,-8.860196,3.927835,-41.719971,,,,,,,
1505840945.122618,0.012577,0.014156,2.608168,0.078621,0.201114,0.075770,0.012576,-0.014156,-0.999821,0.054822,-0.006856,0.016285,-8.830317,3.978152,-41.721535,,,,,,,
1505840945.142588,0.012146,0.013580,2.609163,-0.003677,-0.000936,0.050498,0.012144,-0.013580,-0.999834,-0.019392,0.073165,0.276293,-8.801235,3.995355,-41.726040,,,,,,,
1505840945.162558,0.012160,0.014232,2.610259,0.023951,0.017172,0.055056,0.012159,-0.014232,-0.999825,-0.006086,0.031444,0.072762,-8.795077,3.993329,-41.727528,,,,,,,
1505840945.182529,0.013568,0.013960,2.611123,-0.004677,0.042721,0.035762,0.013566,-0.013960,-0.999811,0.070784,0.059263,0.149881,-8.741690,3.998227,-41.738277,,,,,,,
1505840945.202498,0.016137,0.011650,2.611621,-0.017001,-0.088010,0.027398,0.016135,-0.011650,-0.999802,-0.037634,0.072853,-0.131866,-8.604923,4.096782,-41.757133,,,,,,,
1505840945.222467,0.017134,0.011622,2.612460,-0.008127,0.088419,0.043509,0.017132,-0.011621,-0.999786,-0.069042,0.044474,0.125060,-8.623220,4.102520,-41.752800,,,,,,,
1505840945.242437,0.017235,0.011308,2.613190,0.000917,-0.019938,0.028987,0.017233,-0.011308,-0.999788,0.040521,0.082567,-0.142241,-8.566081,4.129260,-41.761925,,,,,,,
1505840945.262406,0.016350,0.011385,2.613658,-0.032036,-0.022090,0.020209,0.016348,-0.011385,-0.999802,-0.011450,0.054110,-0.034866,-8.600284,4.123906,-41.755421,,,,,,,
1505840945.282341,0.016911,0.007749,2.614178,0.004984,0.020452,0.033537,0.016910,-0.007749,-0.999827,0.010403,0.066022,-0.028875,-8.606121,4.143164,-41.752316,,,,,,,
1505840945.302310,0.017092,0.007786,2.614850,0.002756,0.066177,0.030587,0.017090,-0.007786,-0.999824,-0.025895,0.067631,0.060020,-8.578872,4.287551,-41.743343,,,,,,,
1505840945.322281,0.017527,0.007726,2.615451,0.018970,-0.013536,0.032345,0.017526,-0.007726,-0.999817,0.054038,0.068197,0.102111,-8.545167,4.302882,-41.748680,,,,,,,
1505840945.342250,0.015764,0.003631,2.615980,-0.015269,0.029996,0.028119,0.015763,-0.003631,-0.999869,-0.024384,0.070830,0.040793,-8.571837,4.307057,-41.742779,,,,,,,
1505840945.362221,0.016754,0.003248,2.616400,0.001951,0.050305,0.012280,0.016754,-0.003248,-0.999854,0.091324,0.072309,-0.136635,-8.614733,4.483943,-41.715317,,,,,,,
1505840945.382167,0.016493,0.003093,2.616815,-0.001573,0.064018,0.033761,0.016492,-0.003093,-0.999859,0.005633,0.067043,-0.095417,-8.602257,4.501892,-41.715954,,,,,,,
1505840945.402158,0.016665,0.002895,2.617544,-0.006967,0.065050,0.038019,0.016664,-0.002895,-0.999857,-0.003480,0.088955,-0.008093,-8.593211,4.514984,-41.716408,,,,,,,
1505840945.422129,0.014939,-0.000764,2.618171,0.012716,-0.031597,0.021491,0.014939,0.000764,-0.999888,0.059890,0.091048,-0.061315,-8.637197,4.680237,-41.689098,,,,,,,
1505840945.442075,0.014823,-0.000767,2.618447,-0.004458,0.050281,0.011172,0.014823,0.000767,-0.999890,-0.050467,0.086712,0.126233,-8.657730,4.677981,-41.685093,,,,,,,
1505840945.462067,0.015367,-0.000692,2.618464,0.006545,-0.018756,0.001183,0.015366,0.000692,-0.999882,0.004256,0.084910,0.029987,-8.634875,4.681014,-41.689495,,,,,,,
1505840945.482025,0.014779,-0.000901,2.618616,-0.025572,-0.024181,0.010597,0.014779,0.000901,-0.999890,-0.024392,0.103073,0.157956,-8.643105,4.682522,-41.687618,,,,,,,
1505840945.502001,0.014691,-0.006083,2.618903,-0.007495,-0.029477,0.013885,0.014691,0.006083,-0.999874,0.004581,0.104071,-0.056218,-8.637541,4.692574,-41.687641,,,,,,,
1505840945.521976,0.015086,-0.006204,2.619231,-0.009776,0.009844,0.016251,0.015086,0.006204,-0.999867,-0.015864,0.103339,0.085026,-8.647949,4.907313,-41.660748,,,,,,,
1505840945.541945,0.015359,-0.006469,2.619506,-0.011857,-0.035906,0.022388,0.015358,0.006469,-0.999861,0.038780,0.102570,0.102232,-8.613051,4.924444,-41.665958,,,,,,,
1505840945.561907,0.015203,-0.006680,2.619976,-0.006520,0.005613,0.013032,0.015202,0.006680,-0.999862,-0.001881,0.146412,-0.167496,-8.625812,4.939035,-41.661591,,,,,,,
1505840945.581884,0.016452,-0.013766,2.620564,-0.002598,-0.022150,0.041804,0.016450,0.013766,-0.999770,0.016753,0.123594,0.122435,-8.566595,5.238221,-41.637257,,,,,,,
1505840945.601855,0.016495,-0.013956,2.620977,-0.003317,0.007773,0.008780,0.016493,0.013956,-0.999767,0.012285,0.151678,-0.119298,-8.568261,5.251184,-41.635284,,,,,,,
1505840945.621812,0.016496,-0.014029,2.621409,-0.012136,0.012975,0.029107,0.016493,0.014029,-0.999766,-0.003523,0.118204,0.015833,-8.567869,5.253266,-41.635098,,,,,,,
1505840945.641793,0.016496,-0.014405,2.621807,-0.024645,-0.009295,0.011762,0.016493,0.014405,-0.999760,0.023668,0.136794,-0.097438,-8.561850,5.263592,-41.635036,,,,,,,
1505840945.661764,0.017068,-0.021396,2.622104,0.003026,-0.040106,0.020309,0.017064,0.021394,-0.999626,0.021297,0.125884,-0.043389,-8.530191,5.570946,-41.601528,,,,,,,
1505840945.681719,0.016510,-0.021425,2.622527,-0.004473,-0.025232,0.019283,0.016505,0.021424,-0.999634,-0.003276,0.112716,0.039673,-8.554510,5.574554,-41.596046,,,,,,,
1505840945.701702,0.016441,-0.021547,2.622724,-0.008659,0.008845,0.005541,0.016436,0.021546,-0.999633,-0.015796,0.112182,-0.008729,-8.563838,5.578259,-41.593636,,,,,,,
1505840945.721673,0.016613,-0.027770,2.622831,0.003012,0.012050,0.006700,0.016606,0.027767,-0.999476,0.017391,0.134388,-0.001592,-8.556802,5.842330,-41.558815,,,,,,,
1505840945.741625,0.016704,-0.027782,2.623017,-0.001305,0.000317,0.013029,0.016697,0.027778,-0.999475,0.015896,0.152352,-0.000647,-8.549879,5.843363,-41.560093,,,,,,,
1505840945.761610,0.016500,-0.027750,2.623243,0.000907,-0.007101,0.008714,0.016493,0.027746,-0.999479,0.007601,0.166498,-0.010500,-8.551575,5.844440,-41.559593,,,,,,,
1505840945.781573,0.016726,-0.036628,2.623348,0.001959,0.001433,0.003416,0.016714,0.036620,-0.999189,0.006205,0.164903,-0.016100,-8.548283,6.213605,-41.506683,,,,,,,
1505840945.801551,0.016720,-0.036625,2.623411,0.000966,-0.002812,0.001256,0.016708,0.036617,-0.999190,0.008531,0.192555,0.003050,-8.547305,6.213935,-41.506836,,,,,,,
1505840945.821507,0.016689,-0.036637,2.623382,-0.000071,0.001454,-0.001938,0.016677,0.036629,-0.999190,0.009812,0.201545,-0.020036,-8.548646,6.213812,-41.506577,,,,,,,
1505840945.841480,0.016986,-0.045434,2.623363,0.002036,-0.002788,-0.003023,0.016967,0.045418,-0.998824,0.007401,0.160041,-0.004838,-8.537298,6.577981,-41.452763,,,,,,,
1505840945.861458,0.016863,-0.045426,2.623286,-0.001128,-0.000653,-0.006242,0.016845,0.045410,-0.998826,0.005555,0.154587,-0.005843,-8.543087,6.576429,-41.451813,,,,,,,
1505840945.881402,0.016824,-0.045477,2.623183,-0.002209,-0.000660,-0.005177,0.016806,0.045461,-0.998825,0.006800,0.149561,-0.008103,-8.543294,6.576633,-41.451740,,,,,,,
1505840945.901397,0.017391,-0.059432,2.623102,-0.002273,-0.012357,-0.004178,0.017359,0.059397,-0.998083,0.010534,0.141195,-0.004068,-8.532135,6.875112,-41.405582,,,,,,,
1505840945.921368,0.017622,-0.066082,2.623148,-0.000202,-0.028322,0.001093,0.017583,0.066034,-0.997662,0.011318,0.138907,-0.008273,-8.509358,7.426690,-41.314911,,,,,,,
1505840945.941336,0.017405,-0.071948,2.623117,0.002954,-0.007034,-0.003045,0.017359,0.071886,-0.997262,0.000524,0.131346,-0.011222,-8.519677,7.425285,-41.313038,,,,,,,
1505840945.961303,0.016923,-0.083978,2.622871,-0.005706,0.038687,-0.009251,0.016863,0.083880,-0.996333,-0.012713,0.132765,0.020671,-8.543165,7.916342,-41.216896,,,,,,,
1505840945.981276,0.019251,-0.097350,2.622858,0.005992,0.023835,-0.009268,0.019158,0.097196,-0.995081,0.011512,0.100954,0.027872,-8.479227,8.538308,-41.105801,,,,,,,
1505840946.001245,0.020407,-0.099609,2.622729,0.008364,-0.018635,-0.019147,0.020304,0.099444,-0.994836,0.025442,0.073697,-0.044654,-8.441587,8.699835,-41.079670,,,,,,,
1505840946.021214,0.021113,-0.104996,2.622517,-0.001399,-0.022952,-0.008519,0.020995,0.104803,-0.994271,0.009660,0.071543,0.032220,-8.375494,9.016619,-41.024853,,,,,,,
1505840946.041185,0.020779,-0.104772,2.622382,0.000725,-0.019758,-0.008487,0.020663,0.104580,-0.994302,0.008969,0.052128,-0.042487,-8.386518,9.010383,-41.023968,,,,,,,
1505840946.061154,0.020937,-0.104737,2.622080,0.022196,0.001618,-0.023224,0.020821,0.104546,-0.994302,0.002556,0.080361,-0.040351,-8.391342,9.009541,-41.023170,,,,,,,
1505840946.081124,0.021269,-0.105198,2.621633,-0.002435,0.012183,-0.019022,0.021150,0.105004,-0.994247,-0.012284,0.045142,0.108550,-8.368407,9.025333,-41.024380,,,,,,,
1505840946.101092,0.020527,-0.104933,2.621236,0.008526,-0.066447,-0.023714,0.020412,0.104740,-0.994290,-0.011394,0.047512,0.022794,-8.395925,9.004929,-41.023243,,,,,,,
1505840946.121062,0.020353,-0.104849,2.620953,0.012364,0.015357,-0.009275,0.020239,0.104657,-0.994302,-0.024207,0.051502,0.096948,-8.424566,9.001268,-41.018173,,,,,,,
1505840946.141014,0.020521,-0.104901,2.620805,0.001660,-0.001704,-0.003016,0.020407,0.104709,-0.994294,0.006037,0.010907,-0.022033,-8.419890,8.993122,-41.020924,,,,,,,
1505840946.161000,0.020840,-0.105147,2.620734,0.002811,-0.015507,-0.006305,0.020723,0.104953,-0.994261,0.051878,0.009381,0.040312,-8.396656,9.007162,-41.022602,,,,,,,
1505840946.180943,0.019702,-0.105192,2.620509,-0.001455,0.002575,-0.010506,0.019592,0.104998,-0.994279,-0.010268,0.005918,-0.039717,-8.396656,9.007162,-41.022602,,,,,,,
1505840946.200927,0.019530,-0.104963,2.620353,0.026496,-0.049443,-0.014937,0.019421,0.104771,-0.994307,0.008304,-0.011250,0.072813,-8.444860,9.006510,-41.012852,,,,,,,
1505840946.220910,0.018076,-0.104589,2.619818,0.013688,-0.004775,-0.024385,0.017976,0.104398,-0.994373,-0.016053,-0.006955,0.011783,-8.487904,8.988565,-41.007900,,,,,,,
1505840946.240849,0.018259,-0.104410,2.619337,0.012401,0.045164,-0.018736,0.018158,0.104221,-0.994388,-0.030915,-0.016421,0.106754,-8.487904,8.988565,-41.007900,,,,,,,
1505840946.260833,0.017498,-0.103973,2.618912,0.012730,-0.064339,-0.019395,0.017403,0.103786,-0.994447,-0.038018,-0.046840,0.132799,-8.519742,8.960062,-41.007538,,,,,,,
1505840946.280818,0.018722,-0.102419,2.618594,-0.000395,0.046207,-0.018804,0.018622,0.102240,-0.994585,0.021645,-0.040106,-0.005903,-8.543385,8.939920,-41.007011,,,,,,,
1505840946.300773,0.018061,-0.102311,2.618265,-0.007641,-0.022907,-0.020335,0.017966,0.102133,-0.994609,0.004465,-0.063010,-0.069616,-8.543385,8.939920,-41.007011,,,,,,,
1505840946.320739,0.018616,-0.102103,2.617668,0.029799,-0.008961,-0.030736,0.018518,0.101926,-0.994620,0.011999,-0.073895,0.111227,-8.501832,8.861125,-41.032742,,,,,,,
1505840946.340727,0.016670,-0.099263,2.616806,-0.007757,0.073882,-0.031537,0.016587,0.099100,-0.994939,-0.050355,-0.071055,-0.049418,-8.517561,8.849300,-41.032036,,,,,,,
1505840946.360692,0.016873,-0.098953,2.615943,0.009942,-0.088693,-0.043121,0.016790,0.098791,-0.994967,0.085353,-0.068533,0.037462,-8.558485,8.720308,-41.051128,,,,,,,
1505840946.380645,0.015401,-0.098838,2.615051,0.018265,-0.022767,-0.041603,0.015325,0.098677,-0.995001,-0.097845,-0.084105,0.099402,-8.642078,8.701641,-41.037575,,,,,,,
1505840946.400635,0.019098,-0.094712,2.614433,-0.011751,0.043112,-0.043521,0.019011,0.094571,-0.995337,0.055269,-0.097241,-0.017969,-8.603230,8.681040,-41.050098,,,,,,,
1505840946.420578,0.018175,-0.094868,2.613585,-0.025237,-0.084492,-0.044371,0.018092,0.094725,-0.995339,0.062841,-0.110778,-0.000541,-8.496725,8.522156,-41.105537,,,,,,,
1505840946.440567,0.018119,-0.095190,2.612766,0.008626,-0.011088,-0.039442,0.018036,0.095046,-0.995309,-0.076935,-0.085464,0.010767,-8.542956,8.529156,-41.094505,,,,,,,
1505840946.460544,0.017776,-0.095402,2.611407,-0.090543,-0.175851,-0.088151,0.017694,0.095258,-0.995295,0.109412,-0.179029,-0.199742,-8.524570,8.506670,-41.102982,,,,,,,
1505840946.480494,0.016990,-0.095857,2.609984,0.027061,0.020984,-0.069126,0.016911,0.095711,-0.995266,-0.072575,-0.069252,0.272396,-8.602530,8.538403,-41.080151,,,,,,,
1505840946.500482,0.018574,-0.090399,2.608709,-0.011654,0.108067,-0.062400,0.018498,0.090276,-0.995745,-0.044148,-0.106298,0.078860,-8.565552,8.292212,-41.138271,,,,,,,
1505840946.520452,0.018578,-0.090639,2.607418,0.007079,-0.094961,-0.062442,0.018500,0.090515,-0.995723,0.093469,-0.098526,0.085536,-8.515112,8.293013,-41.148579,,,,,,,
1505840946.540423,0.018350,-0.090413,2.606388,-0.008641,0.085656,-0.043240,0.018274,0.090290,-0.995748,-0.074640,-0.135211,0.002935,-8.571060,8.281632,-41.139256,,,,,,,
,,,,,,,,,,,,,,,,42.293521,-71.264182,60.041870,-1.000000,-1.000000,1505840946.530351,
1505840946.560372,0.019155,-0.090952,2.605357,-0.018741,-0.061033,-0.053824,0.019075,0.090827,-0.995684,0.066161,-0.104910,-0.080808,-8.522554,8.281936,-41.149269,,,,,,,
1505840946.580362,0.017351,-0.086276,2.604120,-0.014261,-0.055642,-0.068758,0.017286,0.086169,-0.996131,-0.014631,-0.104952,-0.002511,-8.574988,8.273485,-41.140072,,,,,,,
1505840946.600332,0.016582,-0.086280,2.603047,-0.011417,-0.045121,-0.044045,0.016520,0.086173,-0.996143,0.004431,-0.116355,-0.087017,-8.627532,8.079699,-41.167595,,,,,,,
1505840946.620301,0.017321,-0.086502,2.601985,0.019493,0.030494,-0.058398,0.017255,0.086394,-0.996112,0.052142,-0.143798,-0.080488,-8.631227,8.076252,-41.167496,,,,,,,
1505840946.640270,0.016855,-0.080274,2.601054,-0.025322,-0.004734,-0.047095,0.016800,0.080187,-0.996638,0.006210,-0.147295,-0.038503,-8.650331,8.064341,-41.165825,,,,,,,
1505840946.660239,0.017546,-0.080335,2.599969,0.003478,0.034700,-0.055253,0.017488,0.080249,-0.996621,-0.030199,-0.138598,-0.088416,-8.645514,7.804774,-41.216835,,,,,,,
1505840946.680208,0.017707,-0.080511,2.599188,-0.011608,0.018652,-0.040446,0.017649,0.080424,-0.996605,0.004797,-0.138728,-0.072030,-8.625326,7.797174,-41.222500,,,,,,,
1505840946.700150,0.018276,-0.072542,2.598433,-0.049857,-0.034596,-0.036709,0.018227,0.072478,-0.997203,0.021263,-0.181502,-0.014592,-8.628200,7.787110,-41.223804,,,,,,,
1505840946.720148,0.018381,-0.072850,2.597686,0.033160,0.041063,-0.037898,0.018332,0.072786,-0.997179,-0.030432,-0.105699,0.017351,-8.613770,7.480745,-41.283512,,,,,,,
1505840946.740118,0.017731,-0.066300,2.596651,-0.034748,0.002725,-0.054598,0.017691,0.066251,-0.997646,-0.009360,-0.154340,-0.095249,-8.612242,7.455224,-41.288445,,,,,,,
1505840946.760087,0.017878,-0.066639,2.595814,-0.004049,0.002701,-0.036208,0.017838,0.066590,-0.997621,-0.015213,-0.131501,0.065523,-8.632542,7.196255,-41.330135,,,,,,,
1505840946.780035,0.017013,-0.066641,2.594913,0.010019,-0.025936,-0.044865,0.016975,0.066591,-0.997636,0.013451,-0.138140,-0.058120,-8.650544,7.195389,-41.326519,,,,,,,
1505840946.800025,0.017104,-0.062060,2.594162,-0.019979,0.003746,-0.039509,0.017070,0.062020,-0.997929,-0.001079,-0.114281,-0.075496,-8.663731,7.196747,-41.323521,,,,,,,
1505840946.819996,0.017257,-0.061999,2.593347,-0.007198,-0.007944,-0.035219,0.017223,0.061959,-0.997930,0.021016,-0.154687,-0.043604,-8.666009,6.985382,-41.359299,,,,,,,
1505840946.839965,0.017054,-0.061973,2.592632,0.019541,0.017661,-0.042386,0.017021,0.061933,-0.997935,-0.011009,-0.107328,0.061702,-8.679379,6.983332,-41.356842,,,,,,,
1505840946.859935,0.015674,-0.056290,2.591637,0.001294,0.061198,-0.041161,0.015648,0.056260,-0.998293,-0.031899,-0.126924,-0.040327,-8.689734,6.968891,-41.357101,,,,,,,
1505840946.879889,0.016265,-0.056334,2.591004,-0.010343,-0.018611,-0.031002,0.016238,0.056304,-0.998282,0.018094,-0.144729,0.063940,-8.713933,6.724264,-41.392494,,,,,,,
1505840946.899873,0.014502,-0.056099,2.590300,0.009158,-0.094030,-0.036695,0.014478,0.056069,-0.998322,0.061861,-0.137384,-0.071426,-8.748026,6.719471,-41.386082,,,,,,,
1505840946.919844,0.011547,-0.049921,2.589592,-0.012725,0.057890,-0.026269,0.011533,0.049900,-0.998688,-0.049710,-0.152684,-0.001877,-8.927816,6.446935,-41.391037,,,,,,,
1505840946.939806,0.012581,-0.050128,2.588951,0.006634,0.024991,-0.030636,0.012565,0.050107,-0.998665,0.014000,-0.138440,0.006081,-8.890037,6.453375,-41.398163,,,,,,,
1505840946.959782,0.013036,-0.042406,2.588387,-0.015578,-0.042046,-0.026889,0.013023,0.042394,-0.999016,0.020653,-0.174596,-0.043739,-8.878108,6.441967,-41.402500,,,,,,,
1505840946.979752,0.012209,-0.042463,2.587933,0.015200,-0.016500,-0.020125,0.012197,0.042451,-0.999024,-0.029211,-0.154908,0.048051,-8.891958,6.128770,-41.447048,,,,,,,
1505840946.999711,0.012921,-0.042456,2.587471,-0.007381,0.051506,-0.021992,0.012909,0.042443,-0.999016,-0.002731,-0.155083,-0.047997,-8.888614,6.119505,-41.449135,,,,,,,
1505840947.019691,0.014658,-0.035758,2.587097,-0.003850,-0.006911,-0.030891,0.014648,0.035750,-0.999253,0.004013,-0.156783,0.066590,-8.860975,6.119541,-41.455048,,,,,,,
1505840947.039660,0.014536,-0.036222,2.586532,-0.023218,-0.027230,-0.013994,0.014526,0.036214,-0.999238,0.022278,-0.176366,-0.071410,-8.799012,5.849255,-41.507233,,,,,,,
1505840947.059618,0.015007,-0.028876,2.586491,0.030254,-0.093067,-0.005504,0.015001,0.028872,-0.999471,0.045028,-0.159503,-0.037761,-8.826319,5.851391,-41.501133,,,,,,,
1505840947.079594,0.013973,-0.028799,2.586184,0.004660,-0.035643,-0.019234,0.013967,0.028795,-0.999488,-0.029073,-0.174592,-0.051416,-8.810644,5.545820,-41.546398,,,,,,,
1505840947.099547,0.013688,-0.028776,2.585914,0.000208,-0.006983,-0.011591,0.013682,0.028772,-0.999492,-0.004069,-0.180002,0.020336,-8.840575,5.539971,-41.540821,,,,,,,
1505840947.119524,0.013363,-0.019756,2.585836,0.010734,-0.002777,0.002422,0.013360,0.019754,-0.999716,-0.006188,-0.210535,-0.024622,-8.846332,5.534458,-41.540329,,,,,,,
1505840947.139498,0.013566,-0.019696,2.585734,0.005551,0.007909,-0.011467,0.013563,0.019695,-0.999714,-0.002241,-0.224941,0.020481,-8.851672,5.164559,-41.586800,,,,,,,
1505840947.159477,0.013934,-0.009433,2.585481,0.001306,0.007886,-0.008278,0.013933,0.009432,-0.999858,0.005384,-0.227908,0.002056,-8.844174,5.160713,-41.588875,,,,,,,
1505840947.179430,0.013799,-0.009365,2.585388,0.001324,-0.012329,-0.005187,0.013798,0.009365,-0.999861,-0.000584,-0.233883,-0.009538,-8.835966,4.730083,-41.641792,,,,,,,
1505840947.199414,0.013737,-0.009399,2.585264,-0.002961,-0.011280,-0.004135,0.013736,0.009399,-0.999861,-0.005451,-0.239883,0.002150,-8.839699,4.729053,-41.641117,,,,,,,
1505840947.219387,0.013801,0.000669,2.585189,0.000259,-0.005969,-0.001940,0.013800,-0.000669,-0.999905,0.004846,-0.228228,0.008556,-8.837529,4.311024,-41.686928,,,,,,,
1505840947.239336,0.013713,0.000637,2.585140,-0.000784,-0.009155,-0.003036,0.013713,-0.000637,-0.999906,0.002095,-0.231953,0.002103,-8.841162,4.311715,-41.686085,,,,,,,
1505840947.259326,0.013615,0.000620,2.585129,-0.000812,-0.009166,-0.000894,0.013615,-0.000620,-0.999907,-0.000874,-0.221334,-0.002778,-8.843841,4.312104,-41.685478,,,,,,,
1505840947.279294,0.013758,0.008955,2.585149,-0.000831,0.000388,0.002377,0.013757,-0.008954,-0.999865,0.001639,-0.157610,-0.008634,-8.840436,3.965740,-41.720573,,,,,,,
1505840947.299242,0.013812,0.008944,2.585223,-0.002971,0.002509,0.002377,0.013811,-0.008944,-0.999865,0.002637,-0.150541,-0.003004,-8.837757,3.966340,-41.721085,,,,,,,
1505840947.319232,0.013866,0.008923,2.585394,-0.003075,-0.004978,0.011970,0.013865,-0.008922,-0.999864,0.005575,-0.162739,-0.006636,-8.833981,3.967200,-41.721802,,,,,,,
1505840947.339203,0.013972,0.016293,2.585630,0.001246,-0.016673,0.014068,0.013969,-0.016293,-0.999770,0.007515,-0.176441,0.003325,-8.825149,3.663887,-41.751400,,,,,,,
1505840947.359154,0.013463,0.016317,2.585990,0.001224,-0.028388,0.018281,0.013460,-0.016317,-0.999776,0.002699,-0.179530,0.017934,-8.840333,3.666632,-41.747948,,,,,,,
1505840947.379142,0.012535,0.025094,2.586442,-0.005265,-0.013556,0.025832,0.012530,-0.025091,-0.999607,-0.009021,-0.191233,0.007785,-8.861260,3.671935,-41.743042,,,,,,,
1505840947.399112,0.012228,0.024915,2.586831,-0.008406,-0.005027,0.019438,0.012224,-0.024913,-0.999615,-0.011995,-0.210027,-0.005161,-8.890090,3.309124,-41.767246,,,,,,,
1505840947.419054,0.011283,0.033947,2.587393,0.003153,0.025768,0.030408,0.011276,-0.033940,-0.999360,-0.001892,-0.210917,0.001847,-8.938623,2.945729,-41.784092,,,,,,,
1505840947.439049,0.011780,0.033889,2.587909,-0.009551,0.025778,0.022835,0.011773,-0.033883,-0.999356,-0.002084,-0.203819,-0.034686,-8.919443,2.948738,-41.787979,,,,,,,
1505840947.459021,0.010511,0.043778,2.588595,-0.017208,0.082065,0.029562,0.010500,-0.043764,-0.998987,-0.044131,-0.208647,0.092493,-8.901132,2.957748,-41.791245,,,,,,,
1505840947.478976,0.011610,0.044209,2.589289,0.031942,0.001304,0.042220,0.011599,-0.044195,-0.998956,0.053358,-0.212809,0.038873,-8.911297,2.541134,-41.816483,,,,,,,
1505840947.498959,0.010889,0.043995,2.590303,-0.007467,-0.048773,0.048109,0.010878,-0.043981,-0.998973,0.006517,-0.161570,0.041545,-8.917138,2.544050,-41.815063,,,,,,,
1505840947.518929,0.009622,0.051908,2.591001,-0.020045,-0.026391,0.029964,0.009609,-0.051884,-0.998607,-0.011456,-0.176952,0.003078,-8.956955,2.556881,-41.805767,,,,,,,
1505840947.538897,0.010410,0.052090,2.591754,0.023313,0.044866,0.043504,0.010396,-0.052066,-0.998590,0.037456,-0.146802,-0.047904,-8.959501,2.233608,-41.823742,,,,,,,
1505840947.558867,0.010842,0.055989,2.592659,-0.006476,-0.001999,0.049467,0.010825,-0.055960,-0.998374,0.011514,-0.094690,-0.009209,-8.959501,2.233608,-41.823742,,,,,,,
1505840947.578838,0.009907,0.056384,2.593503,0.000196,-0.026368,0.034367,0.009891,-0.056354,-0.998362,-0.019611,-0.116283,0.033579,-8.931177,2.073895,-41.838017,,,,,,,
1505840947.598806,0.008056,0.059395,2.594598,-0.006799,0.093647,0.054335,0.008042,-0.059360,-0.998204,0.026245,-0.068371,0.034871,-9.055476,1.948522,-41.817322,,,,,,,
1505840947.618776,0.008466,0.059486,2.595602,-0.000920,-0.049825,0.044937,0.008451,-0.059451,-0.998195,0.072771,-0.085340,-0.021702,-9.055476,1.948522,-41.817322,,,,,,,
1505840947.638746,0.007731,0.061690,2.596621,-0.000048,-0.031805,0.056831,0.007716,-0.061651,-0.998068,0.005101,-0.055079,-0.029276,-9.030869,1.962618,-41.821983,,,,,,,
1505840947.658715,0.007855,0.061668,2.597897,0.017804,0.029858,0.064806,0.007840,-0.061629,-0.998068,0.016421,-0.044420,-0.069284,-9.035949,1.889143,-41.824272,,,,,,,
1505840947.678684,0.007966,0.062131,2.599065,0.016815,0.018176,0.061517,0.007950,-0.062091,-0.998039,0.040634,-0.031018,-0.090523,-9.035949,1.889143,-41.824272,,,,,,,
1505840947.698655,0.009763,0.064847,2.600148,0.022071,0.036258,0.064863,0.009742,-0.064801,-0.997851,-0.040199,0.015042,0.014193,-8.939782,1.770204,-41.850132,,,,,,,
1505840947.718596,0.010007,0.065280,2.601412,0.007108,0.030897,0.067954,0.009985,-0.065234,-0.997820,0.047525,-0.002073,-0.113661,-8.930324,1.768752,-41.852211,,,,,,,
1505840947.738592,0.009182,0.063868,2.602733,0.002984,-0.005244,0.064499,0.009164,-0.063825,-0.997919,-0.005913,0.025037,-0.062826,-8.930483,1.780735,-41.851669,,,,,,,
1505840947.758544,0.009277,0.064637,2.604027,0.024296,-0.006275,0.066763,0.009258,-0.064592,-0.997869,0.011037,-0.000609,0.037343,-8.951002,1.839202,-41.844757,,,,,,,
1505840947.778532,0.008973,0.064297,2.605532,0.012501,-0.014834,0.073066,0.008954,-0.064253,-0.997893,0.024112,0.055754,-0.062791,-8.945065,1.840935,-41.845951,,,,,,,
1505840947.798496,0.007602,0.064577,2.607131,0.023380,-0.108394,0.077922,0.007586,-0.064533,-0.997887,0.051176,0.021716,-0.140388,-8.960168,1.849334,-41.842350,,,,,,,
1505840947.818450,0.008024,0.064666,2.608505,-0.012244,0.068056,0.070205,0.008007,-0.064621,-0.997878,0.038578,0.049560,0.099471,-8.989010,1.856255,-41.835854,,,,,,,
1505840947.838427,0.007429,0.065041,2.609691,0.049046,-0.058300,0.062313,0.007414,-0.064995,-0.997858,0.052233,0.066277,-0.164160,-8.989010,1.856255,-41.835854,,,,,,,
1505840947.858397,0.007950,0.064868,2.610927,-0.017535,0.087238,0.059595,0.007933,-0.064823,-0.997865,-0.058821,0.065372,0.051042,-8.996575,1.856589,-41.834213,,,,,,,
1505840947.878374,0.008912,0.061883,2.612127,0.030596,0.039492,0.059596,0.008895,-0.061844,-0.998046,0.105302,0.047730,-0.155381,-8.929293,2.015519,-41.841274,,,,,,,
1505840947.898350,0.006804,0.061787,2.613449,-0.007605,-0.099931,0.074591,0.006791,-0.061748,-0.998069,0.055130,0.052425,0.047294,-8.948705,2.014608,-41.837170,,,,,,,
1505840947.918303,0.007536,0.062368,2.614771,0.015457,0.078767,0.066168,0.007521,-0.062328,-0.998027,-0.057997,0.069621,-0.107396,-9.006948,2.027425,-41.824051,,,,,,,
1505840947.938262,0.007375,0.062378,2.616013,0.025223,0.019246,0.066938,0.007361,-0.062337,-0.998028,0.009439,0.085500,-0.026447,-8.971485,2.029424,-41.831573,,,,,,,
1505840947.958258,0.008050,0.062884,2.617469,0.019418,0.105273,0.083487,0.008034,-0.062843,-0.997991,-0.032051,0.075538,-0.125346,-8.957196,2.018228,-41.835178,,,,,,,
1505840947.978215,0.008798,0.062817,2.618991,-0.059768,-0.109574,0.067795,0.008781,-0.062776,-0.997989,0.188897,0.052064,-0.213910,-8.888891,2.009765,-41.850155,,,,,,,
1505840947.998198,0.009029,0.055356,2.620371,0.048706,-0.029639,0.073209,0.009015,-0.055328,-0.998428,-0.020307,0.054626,-0.000230,-8.872127,2.367598,-41.834991,,,,,,,
1505840948.018145,0.009506,0.054865,2.621473,-0.017184,0.021406,0.042065,0.009491,-0.054837,-0.998450,0.006530,0.128537,-0.226312,-8.867287,2.372203,-41.835758,,,,,,,
1505840948.038121,0.008205,0.054630,2.622312,-0.010721,-0.041352,0.051364,0.008193,-0.054603,-0.998475,0.048799,0.095374,0.036576,-8.855010,2.391804,-41.837238,,,,,,,
1505840948.058105,0.009660,0.054658,2.623328,-0.010032,0.084100,0.052124,0.009645,-0.054631,-0.998460,0.049803,0.106327,-0.048583,-8.855434,2.412729,-41.835953,,,,,,,
1505840948.078074,0.009355,0.054554,2.624125,0.040724,-0.053937,0.036602,0.009340,-0.054527,-0.998469,0.057310,0.140983,-0.128317,-8.830827,2.434998,-41.839859,,,,,,,
1505840948.098034,0.010456,0.049853,2.624694,-0.036281,0.019294,0.032297,0.010443,-0.049832,-0.998703,-0.005331,0.093945,0.027924,-8.803230,2.612911,-41.834942,,,,,,,
1505840948.118014,0.010132,0.050138,2.625425,0.018328,-0.075247,0.038479,0.010119,-0.050117,-0.998692,-0.029391,0.089699,0.102192,-8.792508,2.627279,-41.836300,,,,,,,
1505840948.137984,0.010525,0.049867,2.626231,0.007292,0.013999,0.046448,0.010512,-0.049847,-0.998702,0.041978,0.100735,0.137663,-8.791017,2.643373,-41.835602,,,,,,,
1505840948.157933,0.010341,0.049587,2.627115,-0.034351,0.044767,0.042101,0.010328,-0.049567,-0.998717,0.003604,0.104972,-0.127320,-8.787688,2.642261,-41.836369,,,,,,,
1505840948.177916,0.012816,0.042561,2.627775,-0.001135,0.016172,0.034628,0.012804,-0.042548,-0.999012,0.071959,0.099860,0.035008,-8.688457,2.961277,-41.835728,,,,,,,
1505840948.197893,0.012708,0.042309,2.628643,-0.016353,0.020299,0.054910,0.012696,-0.042296,-0.999024,-0.024308,0.116209,-0.035247,-8.700757,2.970498,-41.832520,,,,,,,
1505840948.217860,0.013504,0.042006,2.629694,-0.025023,0.084090,0.050959,0.013492,-0.041993,-0.999027,-0.033435,0.114747,0.112216,-8.680893,2.988962,-41.835331,,,,,,,
1505840948.237831,0.012035,0.036119,2.630435,-0.005132,-0.044396,0.024601,0.012027,-0.036111,-0.999275,-0.015704,0.116373,-0.026466,-8.659873,3.003802,-41.838627,,,,,,,
1505840948.257801,0.012223,0.036057,2.630811,0.003361,-0.011401,0.020567,0.012215,-0.036049,-0.999275,-0.024758,0.129494,0.170845,-8.699720,3.261227,-41.811077,,,,,,,
1505840948.277745,0.011466,0.035864,2.631203,-0.020222,-0.007231,0.027948,0.011459,-0.035856,-0.999291,0.021195,0.124739,-0.098212,-8.706005,3.262913,-41.809635,,,,,,,
1505840948.297739,0.010925,0.029243,2.631758,0.008508,0.022608,0.024016,0.010920,-0.029239,-0.999513,-0.015940,0.123233,0.034928,-8.714376,3.281242,-41.806458,,,,,,,
1505840948.317682,0.011847,0.028938,2.632161,-0.009677,0.057675,0.019835,0.011842,-0.028934,-0.999511,-0.005570,0.148547,-0.116242,-8.728956,3.561798,-41.780449,,,,,,,
1505840948.337677,0.011775,0.028598,2.632628,-0.013820,0.030040,0.016431,0.011770,-0.028594,-0.999522,0.015666,0.145629,0.131846,-8.707690,3.579596,-41.783363,,,,,,,
1505840948.357648,0.011625,0.028520,2.633200,-0.030922,-0.006191,0.026820,0.011620,-0.028516,-0.999526,-0.033501,0.169263,0.114409,-8.708275,3.590842,-41.782276,,,,,,,
1505840948.377609,0.012383,0.028519,2.633605,-0.003075,-0.018868,0.021555,0.012378,-0.028515,-0.999517,0.010068,0.178600,-0.066676,-8.678077,3.602736,-41.787533,,,,,,,
1505840948.397587,0.012196,0.027946,2.634014,-0.001999,-0.012477,0.019458,0.012191,-0.027942,-0.999535,0.023896,0.192569,-0.029395,-8.680777,3.620371,-41.785450,,,,,,,
1505840948.417541,0.009337,0.018264,2.634611,-0.016863,-0.066748,0.021186,0.009335,-0.018263,-0.999790,-0.025326,0.178511,0.020084,-8.724767,3.624861,-41.775894,,,,,,,
1505840948.437525,0.009537,0.018193,2.634976,0.007376,0.014079,0.026102,0.009535,-0.018192,-0.999789,0.005769,0.179890,0.047610,-8.791615,4.045351,-41.723248,,,,,,,
